# cc-radar field sample
# firmware=v26.08.01 build=1785625163
# rtc=2026-08-01 23:52:58
# label=walk-straight
# uptime_ms=3130217
# compass_cal_x=-1026 compass_cal_y=-1002 compass_cal_z=0 calibrated=1
# declination_deg=12.216 declination_valid=1
# h0=unknown
# zoom=3
# accel_enabled=1 accel_addr=0x6B gyro_enabled=0
# mag_scale_lsb_per_uT=120 accel_lsb_per_g=8192 gyro_lsb_per_dps=128
# nominal_rate_hz=10
# i2c_start_ops=18895 i2c_start_fails=7
ms,mx,my,mz,cx,cy,cz,h_mag,heading_mag,heading_true,ax,ay,az,gx,gy,gz,lat,lon,speed_kn,course,hdop,sats,fix_valid,zoom,mag_overflow,accel_valid,gyro_valid
3130261,-2230,-1730,-7227,-1204,-728,-7227,1407.0,211.16,223.38,-603,-6496,-4511,0,0,0,34.1342793,-118.1457388,1.30,0.00,1.34,17,1,3,0,1,0
3130361,-2215,-1775,-7180,-1189,-773,-7180,1418.2,213.03,225.25,-452,-6110,-4072,0,0,0,34.1342796,-118.1457389,1.43,0.00,1.44,16,1,3,0,1,0
3130461,-2320,-1745,-7167,-1294,-743,-7167,1492.1,209.86,222.08,154,-6117,-3664,0,0,0,34.1342799,-118.1457391,1.11,344.17,1.44,16,1,3,0,1,0
3130561,-2325,-1657,-7175,-1299,-655,-7175,1454.8,206.76,218.97,191,-6162,-4157,0,0,0,34.1342804,-118.1457393,1.50,343.94,1.44,16,1,3,0,1,0
3130661,-2262,-1562,-7227,-1236,-560,-7227,1356.9,204.37,216.59,-451,-6435,-4307,0,0,0,34.1342809,-118.1457395,0.87,345.82,1.34,17,1,3,0,1,0
3130761,-2257,-1605,-7270,-1231,-603,-7270,1370.8,206.10,218.31,1216,-6303,-5784,0,0,0,34.1342813,-118.1457397,1.02,347.34,1.34,17,1,3,0,1,0
3130861,-2177,-1585,-7212,-1151,-583,-7212,1290.2,206.86,219.08,-107,-5557,-3646,0,0,0,34.1342818,-118.1457399,1.06,343.27,1.34,17,1,3,0,1,0
3130961,-2207,-1552,-7212,-1181,-550,-7212,1302.8,204.97,217.19,607,-5821,-4593,0,0,0,34.1342823,-118.1457401,1.59,344.70,1.34,17,1,3,0,1,0
3131061,-2315,-1615,-7130,-1289,-613,-7130,1427.3,205.43,217.65,9,-5874,-3505,0,0,0,34.1342832,-118.1457401,1.57,350.77,1.34,17,1,3,0,1,0
3131161,-2332,-1707,-7167,-1306,-705,-7167,1484.1,208.36,220.58,297,-6468,-3798,0,0,0,34.1342844,-118.1457399,1.78,2.77,1.34,17,1,3,0,1,0
3131261,-2327,-1682,-7185,-1301,-680,-7185,1468.0,207.59,219.81,588,-7496,-4172,0,0,0,34.1342857,-118.1457399,1.80,6.62,1.34,17,1,3,0,1,0
3131361,-2020,-1692,-7287,-994,-690,-7287,1210.0,214.77,226.98,149,-5567,-6199,0,0,0,34.1342867,-118.1457399,1.09,2.22,1.34,17,1,3,0,1,0
3131461,-1950,-1580,-7310,-924,-578,-7310,1089.9,212.03,224.24,-229,-4996,-5235,0,0,0,34.1342878,-118.1457399,1.76,352.72,1.34,17,1,3,0,1,0
3131561,-1775,-1542,-7347,-749,-540,-7347,923.4,215.79,228.01,-261,-4456,-4917,0,0,0,34.1342894,-118.1457399,1.88,356.29,1.34,17,1,3,0,1,0
3131661,-1720,-1527,-7370,-694,-525,-7370,870.2,217.11,229.32,472,-4989,-4793,0,0,0,34.1342905,-118.1457399,1.40,358.82,1.34,17,1,3,0,1,0
3131761,-1780,-1407,-7445,-754,-405,-7445,855.9,208.24,220.46,50,-5486,-5440,0,0,0,34.1342917,-118.1457397,0.99,0.00,1.34,17,1,3,0,1,0
3131861,-1725,-1365,-7352,-699,-363,-7352,787.6,207.44,219.66,0,-7133,-5579,0,0,0,34.1342925,-118.1457397,1.31,0.00,1.34,17,1,3,0,1,0
3131961,-1925,-1237,-7367,-899,-235,-7367,929.2,194.65,206.87,1452,-5711,-7186,0,0,0,34.1342935,-118.1457397,0.99,0.00,1.34,17,1,3,0,1,0
3132061,-1987,-1340,-7277,-961,-338,-7277,1018.7,199.38,211.59,-852,-5178,-3213,0,0,0,34.1342946,-118.1457396,1.52,359.05,1.34,17,1,3,0,1,0
3132161,-2160,-1305,-7320,-1134,-303,-7320,1173.8,194.96,207.18,262,-6226,-6479,0,0,0,34.1342959,-118.1457399,2.34,353.30,1.34,17,1,3,0,1,0
3132261,-2755,-1507,-7087,-1729,-505,-7087,1801.2,196.28,208.50,310,-6377,-5121,0,0,0,34.1342972,-118.1457399,1.72,358.81,1.34,17,1,3,0,1,0
3132361,-3440,-1730,-6707,-2414,-728,-6707,2521.4,196.78,209.00,-530,-5491,-2059,0,0,0,34.1342981,-118.1457399,0.96,14.55,1.34,17,1,3,0,1,0
3132461,-3772,-1775,-6492,-2746,-773,-6492,2852.7,195.72,207.94,-1255,-6824,-1369,0,0,0,34.1342991,-118.1457400,0.81,18.63,1.34,17,1,3,0,1,0
3132561,-3937,-1677,-6455,-2911,-675,-6455,2988.2,193.05,205.27,-20,-7381,-2291,0,0,0,34.1342998,-118.1457403,1.37,347.74,1.34,17,1,3,0,1,0
3132661,-3735,-1730,-6577,-2709,-728,-6577,2805.1,195.04,207.26,214,-5771,-2187,0,0,0,34.1343004,-118.1457406,1.18,337.28,1.34,17,1,3,0,1,0
3132761,-3777,-1580,-6580,-2751,-578,-6580,2811.1,191.87,204.08,701,-6087,-2888,0,0,0,34.1343009,-118.1457408,1.62,331.31,1.34,17,1,3,0,1,0
3132861,-3750,-1552,-6580,-2724,-550,-6580,2779.0,191.42,203.63,305,-7011,-1625,0,0,0,34.1343016,-118.1457412,1.81,319.73,1.34,17,1,3,0,1,0
3132961,-3725,-1572,-6622,-2699,-570,-6622,2758.5,191.93,204.14,918,-8668,-4392,0,0,0,34.1343022,-118.1457415,1.83,329.30,1.34,17,1,3,0,1,0
3133061,-3702,-1475,-6660,-2676,-473,-6660,2717.5,190.02,202.24,743,-7782,-4874,0,0,0,34.1343027,-118.1457417,1.75,327.13,1.34,17,1,3,0,1,0
3133161,-3645,-1572,-6655,-2619,-570,-6655,2680.3,192.28,204.49,-891,-6246,-1441,0,0,0,34.1343033,-118.1457417,1.87,340.59,1.34,17,1,3,0,1,0
3133261,-3562,-1610,-6730,-2536,-608,-6730,2607.9,193.48,205.70,718,-5861,-3463,0,0,0,34.1343034,-118.1457416,1.90,0.29,1.34,17,1,3,0,1,0
3133361,-3570,-1677,-6642,-2544,-675,-6642,2632.0,194.86,207.08,-46,-6368,-2145,0,0,0,34.1343039,-118.1457414,1.72,3.42,1.34,17,1,3,0,1,0
3133461,-3525,-1750,-6660,-2499,-748,-6660,2608.5,196.66,208.88,22,-6995,-1961,0,0,0,34.1343043,-118.1457416,1.61,358.12,1.34,17,1,3,0,1,0
3133561,-3407,-1712,-6747,-2381,-710,-6747,2484.6,196.60,208.82,-540,-8802,-2940,0,0,0,34.1343054,-118.1457419,2.31,343.14,1.34,17,1,3,0,1,0
3133661,-3177,-1532,-6942,-2151,-530,-6942,2215.3,193.84,206.06,91,-7130,-3219,0,0,0,34.1343066,-118.1457419,2.42,357.63,1.34,17,1,3,0,1,0
3133762,-2895,-1455,-7022,-1869,-453,-7022,1923.1,193.62,205.84,-48,-5217,-4956,0,0,0,34.1343080,-118.1457418,2.43,358.09,1.34,17,1,3,0,1,0
3133861,-2567,-1547,-7190,-1541,-545,-7190,1634.5,199.48,211.69,428,-5378,-3358,0,0,0,34.1343080,-118.1457418,2.43,358.09,1.34,17,1,3,0,1,0
3133961,-2132,-1647,-7265,-1106,-645,-7265,1280.3,210.25,222.47,144,-5326,-4064,0,0,0,34.1343114,-118.1457411,3.14,356.27,1.34,17,1,3,0,1,0
3134061,-1802,-1465,-7375,-776,-463,-7375,903.6,210.82,223.04,-74,-6212,-6974,0,0,0,34.1343130,-118.1457405,2.93,354.81,1.34,17,1,3,0,1,0
3134161,-1465,-1360,-7400,-439,-358,-7400,566.5,219.20,231.41,644,-5491,-8145,0,0,0,34.1343142,-118.1457402,3.99,353.03,1.34,17,1,3,0,1,0
3134261,-1425,-1242,-7505,-399,-240,-7505,465.6,211.03,223.24,44,-4501,-5362,0,0,0,34.1343159,-118.1457401,3.10,350.87,1.34,17,1,3,0,1,0
3134361,-1165,-1195,-7502,-139,-193,-7502,237.8,234.24,246.45,540,-3818,-6356,0,0,0,34.1343169,-118.1457400,1.97,357.62,1.34,17,1,3,0,1,0
3134461,-1190,-1350,-7445,-164,-348,-7445,384.7,244.77,256.98,-463,-4732,-5963,0,0,0,34.1343179,-118.1457398,2.14,356.99,1.34,17,1,3,0,1,0
3134561,-1245,-1437,-7510,-219,-435,-7510,487.0,243.28,255.49,710,-5363,-6588,0,0,0,34.1343189,-118.1457396,2.02,1.88,1.34,17,1,3,0,1,0
3134661,-1095,-1340,-7497,-69,-338,-7497,345.0,258.46,270.68,243,-4654,-8439,0,0,0,34.1343199,-118.1457394,0.97,7.70,1.34,17,1,3,0,1,0
3134761,-1180,-1345,-7497,-154,-343,-7497,376.0,245.82,258.04,-563,-5401,-5199,0,0,0,34.1343211,-118.1457394,1.52,7.63,1.34,17,1,3,0,1,0
3134862,-1250,-1195,-7502,-224,-193,-7502,295.7,220.75,232.96,586,-2590,-6465,0,0,0,34.1343225,-118.1457391,2.44,3.33,1.34,17,1,3,0,1,0
3134961,-1312,-1282,-7440,-286,-280,-7440,400.2,224.39,236.61,-100,-4152,-4343,0,0,0,34.1343239,-118.1457389,3.49,6.35,1.34,17,1,3,0,1,0
3135061,-1560,-1330,-7477,-534,-328,-7477,626.7,211.56,223.78,-9,-4745,-5003,0,0,0,34.1343252,-118.1457388,1.65,2.16,1.34,17,1,3,0,1,0
3135161,-1677,-1397,-7427,-651,-395,-7427,761.5,211.25,223.46,205,-5847,-7351,0,0,0,34.1343265,-118.1457392,1.54,344.55,1.34,17,1,3,0,1,0
3135261,-1587,-1335,-7390,-561,-333,-7390,652.4,210.69,222.91,1384,-5562,-7352,0,0,0,34.1343267,-118.1457395,0.95,329.29,1.34,17,1,3,0,1,0
3135362,-1452,-1340,-7395,-426,-338,-7395,543.8,218.43,230.65,1,-4531,-3827,0,0,0,34.1343273,-118.1457398,1.59,325.19,1.34,17,1,3,0,1,0
3135461,-1415,-1377,-7450,-389,-375,-7450,540.3,223.95,236.17,517,-4344,-5308,0,0,0,34.1343281,-118.1457400,1.66,331.24,1.34,17,1,3,0,1,0
3135561,-1725,-1392,-7337,-699,-390,-7337,800.4,209.16,221.38,-406,-4989,-3777,0,0,0,34.1343287,-118.1457400,1.89,343.38,1.34,17,1,3,0,1,0
3135661,-1877,-1567,-7310,-851,-565,-7310,1021.5,213.58,225.80,400,-5901,-5889,0,0,0,34.1343295,-118.1457402,1.63,352.06,1.34,17,1,3,0,1,0
3135761,-1840,-1527,-7305,-814,-525,-7305,968.6,212.82,225.04,6,-7073,-6152,0,0,0,34.1343302,-118.1457400,1.65,19.70,1.34,17,1,3,0,1,0
3135861,-1870,-1475,-7305,-844,-473,-7305,967.5,209.27,221.48,413,-5647,-4697,0,0,0,34.1343309,-118.1457400,2.35,13.37,1.34,17,1,3,0,1,0
3135961,-1742,-1552,-7320,-716,-550,-7320,902.9,217.53,229.75,-165,-3021,-5690,0,0,0,34.1343317,-118.1457400,2.39,12.63,1.34,17,1,3,0,1,0
3136061,-1827,-1495,-7320,-801,-493,-7320,940.6,211.61,223.83,337,-4684,-4511,0,0,0,34.1343323,-118.1457401,2.70,359.52,1.34,17,1,3,0,1,0
3136161,-2015,-1505,-7277,-989,-503,-7277,1109.6,206.96,219.17,-116,-5267,-4509,0,0,0,34.1343330,-118.1457400,2.16,357.45,1.34,17,1,3,0,1,0
3136261,-2057,-1470,-7292,-1031,-468,-7292,1132.2,204.41,216.63,-194,-6885,-5791,0,0,0,34.1343334,-118.1457395,3.09,7.52,1.34,17,1,3,0,1,0
3136361,-1915,-1190,-7330,-889,-188,-7330,908.7,191.94,204.16,1567,-5807,-7873,0,0,0,34.1343336,-118.1457388,3.53,13.40,1.34,17,1,3,0,1,0
3136461,-2080,-1377,-7270,-1054,-375,-7270,1118.7,199.58,211.80,-9,-4990,-3106,0,0,0,34.1343341,-118.1457384,2.16,9.83,1.34,17,1,3,0,1,0
3136561,-1977,-1330,-7270,-951,-328,-7270,1006.0,199.03,211.25,275,-4765,-5615,0,0,0,34.1343349,-118.1457381,1.71,8.50,1.21,18,1,3,0,1,0
3136661,-2137,-1440,-7245,-1111,-438,-7245,1194.2,201.52,213.73,-54,-4966,-3417,0,0,0,34.1343359,-118.1457379,1.44,5.94,1.21,18,1,3,0,1,0
3136761,-2240,-1527,-7200,-1214,-525,-7200,1322.7,203.39,215.60,589,-6615,-5498,0,0,0,34.1343370,-118.1457377,2.23,5.46,1.21,18,1,3,0,1,0
3136861,-2150,-1580,-7157,-1124,-578,-7157,1263.9,207.21,219.43,-41,-8440,-6064,0,0,0,34.1343380,-118.1457374,1.95,357.06,1.21,18,1,3,0,1,0
3136961,-2287,-1625,-7147,-1261,-623,-7147,1406.5,206.29,218.51,-639,-5741,-4223,0,0,0,34.1343391,-118.1457369,2.25,359.02,1.21,18,1,3,0,1,0
3137061,-2262,-1645,-7195,-1236,-643,-7195,1393.2,207.48,219.70,-14,-3878,-4439,0,0,0,34.1343400,-118.1457363,1.40,7.70,1.21,18,1,3,0,1,0
3137161,-2380,-1527,-7147,-1354,-525,-7147,1452.2,201.19,213.41,246,-4764,-3596,0,0,0,34.1343407,-118.1457357,2.09,13.30,1.21,18,1,3,0,1,0
3137261,-2422,-1485,-7147,-1396,-483,-7147,1477.2,199.09,211.30,-29,-5922,-3872,0,0,0,34.1343416,-118.1457353,2.14,10.82,1.21,18,1,3,0,1,0
3137361,-2332,-1412,-7162,-1306,-410,-7162,1368.8,197.43,209.65,435,-8322,-6424,0,0,0,34.1343424,-118.1457347,1.50,13.76,1.21,18,1,3,0,1,0
3137461,-2385,-1330,-7142,-1359,-328,-7142,1398.0,193.57,205.79,1232,-6308,-7111,0,0,0,34.1343430,-118.1457344,0.83,2.89,1.21,18,1,3,0,1,0
3137561,-2450,-1392,-7092,-1424,-390,-7092,1476.4,195.32,207.53,-50,-4958,-2058,0,0,0,34.1343434,-118.1457343,1.15,0.67,1.21,18,1,3,0,1,0
3137661,-2300,-1450,-7115,-1274,-448,-7115,1350.5,199.37,211.59,152,-4804,-4732,0,0,0,34.1343441,-118.1457342,1.48,359.24,1.21,18,1,3,0,1,0
3137761,-2315,-1547,-7172,-1289,-545,-7172,1399.5,202.92,215.14,-425,-5106,-2953,0,0,0,34.1343464,-118.1457340,2.18,2.11,1.21,18,1,3,0,1,0
3137861,-2225,-1557,-7120,-1199,-555,-7120,1321.2,204.84,217.05,767,-7162,-6211,0,0,0,34.1343480,-118.1457338,1.91,358.65,1.21,18,1,3,0,1,0
3137961,-2250,-1672,-7130,-1224,-670,-7130,1395.4,208.70,220.91,464,-8066,-6451,0,0,0,34.1343492,-118.1457341,1.56,349.87,1.21,18,1,3,0,1,0
3138061,-2332,-1712,-7115,-1306,-710,-7115,1486.5,208.53,220.75,-912,-5628,-4042,0,0,0,34.1343501,-118.1457342,1.59,359.05,1.21,18,1,3,0,1,0
3138161,-2310,-1667,-7110,-1284,-665,-7110,1446.0,207.38,219.60,-26,-3404,-4012,0,0,0,34.1343509,-118.1457341,2.60,2.18,1.21,18,1,3,0,1,0
3138261,-2315,-1600,-7175,-1289,-598,-7175,1421.0,204.89,217.10,630,-4908,-3483,0,0,0,34.1343519,-118.1457339,1.72,1.48,1.21,18,1,3,0,1,0
3138362,-2315,-1620,-7200,-1289,-618,-7200,1429.5,205.61,217.83,-491,-5896,-4384,0,0,0,34.1343527,-118.1457337,0.68,355.56,1.21,18,1,3,0,1,0
3138461,-2212,-1532,-7105,-1186,-530,-7105,1299.0,204.08,216.30,310,-8241,-5689,0,0,0,34.1343533,-118.1457334,0.26,0.00,1.21,18,1,3,0,1,0
3138561,-2262,-1407,-7147,-1236,-405,-7147,1300.7,198.14,210.36,1018,-6040,-6985,0,0,0,34.1343535,-118.1457332,0.51,0.00,1.21,18,1,3,0,1,0
3138661,-2235,-1557,-7105,-1209,-555,-7105,1330.3,204.66,216.87,-445,-5456,-2302,0,0,0,34.1343540,-118.1457328,0.17,0.00,1.21,18,1,3,0,1,0
3138761,-2112,-1590,-7190,-1086,-588,-7190,1235.0,208.43,220.65,145,-4539,-4598,0,0,0,34.1343550,-118.1457325,0.36,0.00,1.21,18,1,3,0,1,0
3138861,-2062,-1610,-7207,-1036,-608,-7207,1201.2,210.41,222.62,128,-5710,-3934,0,0,0,34.1343560,-118.1457322,0.17,0.00,1.21,18,1,3,0,1,0
3138961,-2047,-1662,-7217,-1021,-660,-7217,1215.7,212.88,225.10,477,-7023,-6076,0,0,0,34.1343568,-118.1457319,0.44,0.00,1.21,18,1,3,0,1,0
3139061,-2027,-1677,-7205,-1001,-675,-7205,1207.3,213.99,226.21,203,-7532,-6522,0,0,0,34.1343575,-118.1457317,0.93,0.00,1.21,18,1,3,0,1,0
3139161,-1972,-1755,-7245,-946,-753,-7245,1209.1,218.52,230.74,-1834,-5622,-3929,0,0,0,34.1343582,-118.1457314,1.15,0.00,1.21,18,1,3,0,1,0
3139261,-1920,-1760,-7212,-894,-758,-7212,1172.1,220.29,232.51,244,-3251,-5225,0,0,0,34.1343587,-118.1457315,0.61,0.00,1.21,18,1,3,0,1,0
3139361,-1930,-1770,-7260,-904,-768,-7260,1186.2,220.35,232.57,535,-4993,-3540,0,0,0,34.1343588,-118.1457314,0.65,0.00,1.21,18,1,3,0,1,0
3139461,-1925,-1920,-7250,-899,-918,-7250,1284.9,225.60,237.82,-480,-5427,-4264,0,0,0,34.1343590,-118.1457315,0.37,0.00,1.21,18,1,3,0,1,0
3139561,-1887,-1842,-7277,-861,-840,-7277,1202.9,224.29,236.51,-400,-7449,-6812,0,0,0,34.1343594,-118.1457316,1.39,0.00,1.21,18,1,3,0,1,0
3139661,-1860,-1662,-7287,-834,-660,-7287,1063.6,218.36,230.57,459,-5570,-7020,0,0,0,34.1343601,-118.1457318,2.70,0.00,1.21,18,1,3,0,1,0
3139761,-2015,-1745,-7282,-989,-743,-7282,1237.0,216.92,229.13,60,-5312,-2457,0,0,0,34.1343607,-118.1457320,2.00,359.36,1.21,18,1,3,0,1,0
3139861,-1907,-1725,-7305,-881,-723,-7305,1139.7,219.37,231.59,111,-4678,-5538,0,0,0,34.1343613,-118.1457321,1.80,358.46,1.21,18,1,3,0,1,0
3139961,-2037,-1812,-7207,-1011,-810,-7207,1295.5,218.70,230.92,-721,-5039,-3487,0,0,0,34.1343618,-118.1457322,1.31,351.36,1.21,18,1,3,0,1,0
3140061,-2005,-1827,-7240,-979,-825,-7240,1280.3,220.12,232.34,370,-6540,-6604,0,0,0,34.1343623,-118.1457324,0.88,349.37,1.21,18,1,3,0,1,0
3140161,-2005,-1842,-7232,-979,-840,-7232,1290.0,220.63,232.85,994,-7543,-7521,0,0,0,34.1343630,-118.1457322,1.13,0.00,1.21,18,1,3,0,1,0
3140261,-2062,-1765,-7237,-1036,-763,-7237,1286.6,216.37,228.59,-1535,-5299,-3313,0,0,0,34.1343641,-118.1457319,1.79,1.21,1.21,18,1,3,0,1,0
3140361,-1912,-1782,-7292,-886,-780,-7292,1180.4,221.36,233.58,-140,-3251,-4422,0,0,0,34.1343652,-118.1457314,1.75,355.19,1.21,18,1,3,0,1,0
3140461,-1902,-1652,-7302,-876,-650,-7302,1090.8,216.58,228.79,63,-4727,-4004,0,0,0,34.1343664,-118.1457311,1.83,347.63,1.21,18,1,3,0,1,0
3140561,-1840,-1640,-7282,-814,-638,-7282,1034.2,218.09,230.30,-463,-5912,-4984,0,0,0,34.1343675,-118.1457307,1.82,353.74,1.21,18,1,3,0,1,0
3140661,-1870,-1605,-7330,-844,-603,-7330,1037.3,215.54,227.76,-702,-7533,-6115,0,0,0,34.1343685,-118.1457303,1.63,358.33,1.21,18,1,3,0,1,0
3140761,-1912,-1397,-7335,-886,-395,-7335,970.1,204.03,216.24,851,-4807,-7387,0,0,0,34.1343698,-118.1457301,2.19,11.68,1.21,18,1,3,0,1,0
3140861,-1930,-1500,-7335,-904,-498,-7335,1032.1,208.85,221.07,-28,-5499,-2169,0,0,0,34.1343708,-118.1457296,1.80,13.34,1.21,18,1,3,0,1,0
3140961,-1912,-1527,-7347,-886,-525,-7347,1029.9,210.65,222.87,-261,-4331,-4602,0,0,0,34.1343720,-118.1457292,2.07,9.60,1.21,18,1,3,0,1,0
3141061,-1935,-1532,-7292,-909,-530,-7292,1052.2,210.24,222.46,-577,-5579,-4655,0,0,0,34.1343732,-118.1457290,2.20,6.63,1.21,18,1,3,0,1,0
3141161,-1957,-1595,-7240,-931,-593,-7240,1103.8,212.50,224.71,259,-7103,-7621,0,0,0,34.1343747,-118.1457288,2.28,3.64,1.21,18,1,3,0,1,0
3141261,-2122,-1522,-7207,-1096,-520,-7207,1213.1,205.38,217.60,-282,-6260,-7271,0,0,0,34.1343757,-118.1457288,2.18,3.89,1.21,18,1,3,0,1,0
3141361,-2197,-1605,-7217,-1171,-603,-7217,1317.1,207.25,219.46,-966,-4595,-3348,0,0,0,34.1343768,-118.1457292,2.43,354.87,1.21,18,1,3,0,1,0
3141461,-2070,-1445,-7255,-1044,-443,-7255,1134.1,202.99,215.21,648,-4116,-3769,0,0,0,34.1343776,-118.1457294,1.72,359.32,1.21,18,1,3,0,1,0
3141561,-1987,-1427,-7310,-961,-425,-7310,1050.8,203.86,216.07,624,-5515,-4456,0,0,0,34.1343785,-118.1457296,2.02,356.58,1.21,18,1,3,0,1,0
3141661,-2020,-1445,-7212,-994,-443,-7212,1088.2,204.02,216.24,55,-5594,-5320,0,0,0,34.1343794,-118.1457297,2.07,351.34,1.21,18,1,3,0,1,0
3141761,-1950,-1397,-7330,-924,-395,-7330,1004.9,203.15,215.36,-132,-7891,-5906,0,0,0,34.1343801,-118.1457297,2.31,353.23,1.21,18,1,3,0,1,0
3141861,-2010,-1470,-7302,-984,-468,-7302,1089.6,205.44,217.65,417,-4284,-5950,0,0,0,34.1343807,-118.1457297,2.87,350.74,1.21,18,1,3,0,1,0
3141961,-1930,-1532,-7302,-904,-530,-7302,1047.9,210.38,222.60,-50,-5759,-2617,0,0,0,34.1343817,-118.1457299,3.15,350.23,1.21,18,1,3,0,1,0
3142061,-1892,-1635,-7297,-866,-633,-7297,1072.7,216.16,228.38,-367,-4504,-4412,0,0,0,34.1343826,-118.1457301,2.21,350.87,1.21,18,1,3,0,1,0
3142161,-2000,-1712,-7265,-974,-710,-7265,1205.3,216.09,228.31,-47,-5931,-4486,0,0,0,34.1343834,-118.1457302,1.77,354.70,1.21,18,1,3,0,1,0
3142261,-1995,-1725,-7190,-969,-723,-7190,1209.0,216.73,228.94,-499,-7335,-6791,0,0,0,34.1343842,-118.1457304,1.46,1.33,1.34,17,1,3,0,1,0
3142361,-2080,-1692,-7222,-1054,-690,-7222,1259.8,213.21,225.43,452,-4713,-8673,0,0,0,34.1343849,-118.1457304,1.53,0.29,1.34,17,1,3,0,1,0
3142461,-2057,-1792,-7222,-1031,-790,-7222,1298.9,217.46,229.68,-507,-4114,-5370,0,0,0,34.1343854,-118.1457305,1.72,352.23,1.34,17,1,3,0,1,0
3142561,-1977,-1775,-7200,-951,-773,-7200,1225.5,219.11,231.32,531,-4265,-3433,0,0,0,34.1343861,-118.1457306,2.14,347.15,1.34,17,1,3,0,1,0
3142661,-1995,-1725,-7265,-969,-723,-7265,1209.0,216.73,228.94,-384,-4814,-4492,0,0,0,34.1343866,-118.1457309,2.04,352.98,1.34,17,1,3,0,1,0
3142761,-1962,-1692,-7240,-936,-690,-7240,1162.8,216.40,228.61,217,-6439,-6029,0,0,0,34.1343872,-118.1457310,1.40,357.77,1.34,17,1,3,0,1,0
3142861,-1870,-1557,-7240,-844,-555,-7240,1010.1,213.33,225.54,253,-6100,-8394,0,0,0,34.1343877,-118.1457311,1.22,2.45,1.34,17,1,3,0,1,0
3142961,-1962,-1505,-7175,-936,-503,-7175,1062.6,208.25,220.47,279,-3758,-4303,0,0,0,34.1343883,-118.1457314,1.10,348.63,1.34,17,1,3,0,1,0
3143061,-1892,-1542,-7245,-866,-540,-7245,1020.6,211.95,224.16,590,-4962,-4632,0,0,0,34.1343889,-118.1457317,1.35,338.74,1.34,17,1,3,0,1,0
3143161,-1870,-1677,-7255,-844,-675,-7255,1080.7,218.65,230.87,-706,-4895,-3551,0,0,0,34.1343896,-118.1457319,1.43,343.49,1.34,17,1,3,0,1,0
3143261,-1920,-1677,-7217,-894,-675,-7217,1120.2,217.05,229.27,366,-6815,-5780,0,0,0,34.1343904,-118.1457322,2.05,344.49,1.34,17,1,3,0,1,0
3143361,-1940,-1672,-7212,-914,-670,-7212,1133.3,216.24,228.46,-232,-7790,-6077,0,0,0,34.1343909,-118.1457328,1.93,347.21,1.34,17,1,3,0,1,0
3143461,-1952,-1647,-7172,-926,-645,-7172,1128.5,214.86,227.08,-1068,-4979,-4525,0,0,0,34.1343917,-118.1457330,2.12,355.97,1.34,17,1,3,0,1,0
3143561,-1887,-1662,-7190,-861,-660,-7190,1084.9,217.47,229.69,-437,-3064,-4543,0,0,0,34.1343927,-118.1457331,2.19,356.91,1.34,17,1,3,0,1,0
3143661,-1775,-1600,-7227,-749,-598,-7227,958.4,218.60,230.82,240,-4610,-4070,0,0,0,34.1343935,-118.1457334,1.91,354.83,1.34,17,1,3,0,1,0
3143761,-1827,-1625,-7232,-801,-623,-7232,1014.8,217.87,230.09,-74,-5156,-5409,0,0,0,34.1343945,-118.1457334,2.39,355.56,1.34,17,1,3,0,1,0
3143861,-1672,-1547,-7237,-646,-545,-7237,845.2,220.15,232.37,-442,-7395,-5977,0,0,0,34.1343952,-118.1457336,2.34,0.87,1.34,17,1,3,0,1,0
3143961,-1537,-1475,-7270,-511,-473,-7270,696.3,222.79,235.00,920,-4546,-8465,0,0,0,34.1343960,-118.1457335,1.94,3.50,1.34,17,1,3,0,1,0
3144061,-1672,-1640,-7227,-646,-638,-7227,907.9,224.64,236.86,149,-5329,-1927,0,0,0,34.1343967,-118.1457336,2.47,2.44,1.34,17,1,3,0,1,0
3144161,-1545,-1557,-7305,-519,-555,-7305,759.9,226.92,239.14,-264,-4214,-5140,0,0,0,34.1343976,-118.1457339,3.13,358.54,1.34,17,1,3,0,1,0
3144261,-1587,-1577,-7245,-561,-575,-7245,803.3,225.71,237.92,-712,-5370,-5517,0,0,0,34.1343985,-118.1457342,2.63,357.20,1.34,17,1,3,0,1,0
3144361,-1690,-1682,-7297,-664,-680,-7297,950.4,225.68,237.90,222,-6625,-8025,0,0,0,34.1343991,-118.1457345,2.15,0.89,1.34,17,1,3,0,1,0
3144461,-1817,-1532,-7265,-791,-530,-7265,952.1,213.82,226.04,847,-5245,-7640,0,0,0,34.1343998,-118.1457348,1.37,4.41,1.34,17,1,3,0,1,0
3144561,-1827,-1562,-7272,-801,-560,-7272,977.3,214.96,227.17,-502,-3825,-4776,0,0,0,34.1344002,-118.1457349,1.37,5.69,1.34,17,1,3,0,1,0
3144661,-1802,-1460,-7277,-776,-458,-7277,901.1,210.55,222.77,95,-3868,-4116,0,0,0,34.1344005,-118.1457350,1.78,6.61,1.34,17,1,3,0,1,0
3144761,-1930,-1542,-7232,-904,-540,-7232,1053.0,210.85,223.07,-160,-4880,-4640,0,0,0,34.1344016,-118.1457354,2.10,356.94,1.34,17,1,3,0,1,0
3144861,-1972,-1455,-7217,-946,-453,-7217,1048.9,205.59,217.80,116,-6200,-5915,0,0,0,34.1344027,-118.1457356,1.79,356.16,1.34,17,1,3,0,1,0
3144961,-1877,-1377,-7260,-851,-375,-7260,930.0,203.78,216.00,1225,-6816,-8419,0,0,0,34.1344037,-118.1457361,1.02,358.40,1.34,17,1,3,0,1,0
3145061,-1920,-1585,-7227,-894,-583,-7227,1067.3,213.11,225.33,-544,-3851,-3787,0,0,0,34.1344047,-118.1457365,0.66,4.43,1.34,17,1,3,0,1,0
3145161,-1962,-1500,-7227,-936,-498,-7227,1060.2,208.02,220.23,799,-4959,-5333,0,0,0,34.1344056,-118.1457370,0.94,358.89,1.34,17,1,3,0,1,0
3145261,-2000,-1647,-7222,-974,-645,-7222,1168.2,213.51,225.73,-1206,-4579,-3623,0,0,0,34.1344072,-118.1457373,1.71,352.76,1.34,17,1,3,0,1,0
3145361,-2107,-1692,-7205,-1081,-690,-7205,1282.4,212.55,224.77,295,-7162,-5280,0,0,0,34.1344087,-118.1457377,1.35,346.43,1.34,17,1,3,0,1,0
3145461,-2212,-1677,-7172,-1186,-675,-7172,1364.6,209.65,221.86,-152,-8693,-5957,0,0,0,34.1344101,-118.1457380,1.65,349.86,1.34,17,1,3,0,1,0
3145561,-2702,-1677,-7032,-1676,-675,-7032,1806.8,201.94,214.15,-83,-6153,-5416,0,0,0,34.1344112,-118.1457382,1.37,353.10,1.34,17,1,3,0,1,0
3145661,-2862,-1625,-6940,-1836,-623,-6940,1938.8,198.74,210.96,-94,-4122,-3922,0,0,0,34.1344134,-118.1457378,1.71,8.28,1.34,17,1,3,0,1,0
3145761,-3045,-1682,-6897,-2019,-680,-6897,2130.4,198.61,210.83,-33,-4593,-1655,0,0,0,34.1344152,-118.1457377,1.72,359.47,1.34,17,1,3,0,1,0
3145861,-3187,-1490,-6842,-2161,-488,-6842,2215.4,192.73,204.94,159,-6016,-2558,0,0,0,34.1344174,-118.1457372,2.87,3.59,1.34,17,1,3,0,1,0
3145961,-3190,-1377,-6795,-2164,-375,-6795,2196.3,189.83,202.05,182,-9622,-4028,0,0,0,34.1344200,-118.1457366,2.26,9.51,1.34,17,1,3,0,1,0
3146061,-3227,-1237,-6865,-2201,-235,-6865,2213.5,186.09,198.31,1846,-7628,-5856,0,0,0,34.1344221,-118.1457364,1.65,12.01,1.34,17,1,3,0,1,0
3146161,-3115,-1235,-6897,-2089,-233,-6897,2102.0,186.36,198.58,12,-6177,-1566,0,0,0,34.1344249,-118.1457358,1.36,8.56,1.34,17,1,3,0,1,0
3146261,-3152,-1330,-6860,-2126,-328,-6860,2151.2,188.77,200.99,355,-5409,-3415,0,0,0,34.1344293,-118.1457349,1.91,0.83,1.34,17,1,3,0,1,0
3146361,-3167,-1610,-6850,-2141,-608,-6850,2225.7,195.85,208.07,-962,-5755,-2164,0,0,0,34.1344328,-118.1457349,2.61,1.47,1.34,17,1,3,0,1,0
3146461,-3157,-1630,-6845,-2131,-628,-6845,2221.6,196.42,208.64,814,-8176,-4923,0,0,0,34.1344359,-118.1457345,2.69,0.02,1.34,17,1,3,0,1,0
3146561,-3167,-1600,-6807,-2141,-598,-6807,2222.9,195.61,207.82,546,-8687,-5715,0,0,0,34.1344381,-118.1457345,2.52,358.35,1.34,17,1,3,0,1,0
3146661,-3252,-1745,-6790,-2226,-743,-6790,2346.7,198.46,210.67,-921,-6078,-2070,0,0,0,34.1344401,-118.1457343,2.71,1.37,1.34,17,1,3,0,1,0
3146761,-3167,-1797,-6832,-2141,-795,-6832,2283.8,200.37,212.59,482,-4736,-2399,0,0,0,34.1344423,-118.1457343,1.63,1.06,1.34,17,1,3,0,1,0
3146861,-3037,-1652,-6870,-2011,-650,-6870,2113.4,197.91,210.13,293,-5433,-2901,0,0,0,34.1344441,-118.1457342,1.73,0.88,1.34,17,1,3,0,1,0
3146961,-3082,-1635,-6942,-2056,-633,-6942,2151.2,197.11,209.33,-76,-7294,-3125,0,0,0,34.1344461,-118.1457342,2.05,4.39,1.34,17,1,3,0,1,0
3147061,-2882,-1605,-6972,-1856,-603,-6972,1951.5,198.00,210.21,736,-8324,-4538,0,0,0,34.1344478,-118.1457342,1.95,7.82,1.34,17,1,3,0,1,0
3147162,-2777,-1615,-7070,-1751,-613,-7070,1855.2,199.29,211.51,1130,-5053,-4017,0,0,0,34.1344491,-118.1457341,1.78,8.83,1.34,17,1,3,0,1,0
3147261,-2465,-1562,-7167,-1439,-560,-7167,1544.1,201.26,213.48,640,-7029,-3218,0,0,0,34.1344491,-118.1457341,1.78,8.83,1.34,17,1,3,0,1,0
3147361,-2380,-1615,-7172,-1354,-613,-7172,1486.3,204.36,216.57,-286,-4566,-3645,0,0,0,34.1344529,-118.1457345,2.91,0.26,1.33,17,1,3,0,1,0
3147461,-2362,-1557,-7180,-1336,-555,-7180,1446.7,202.56,214.78,-834,-5629,-3255,0,0,0,34.1344547,-118.1457346,2.36,4.07,1.44,16,1,3,0,1,0
3147561,-1995,-1770,-7250,-969,-768,-7250,1236.4,218.40,230.62,264,-7299,-5769,0,0,0,34.1344561,-118.1457348,2.49,6.09,1.44,16,1,3,0,1,0
3147661,-1727,-1715,-7375,-701,-713,-7375,999.9,225.49,237.70,1296,-5967,-8978,0,0,0,34.1344574,-118.1457352,2.04,356.12,1.44,16,1,3,0,1,0
3147761,-1560,-1782,-7367,-534,-780,-7367,945.3,235.60,247.82,-815,-3262,-5968,0,0,0,34.1344584,-118.1457353,2.00,355.10,1.44,16,1,3,0,1,0
3147861,-1662,-1782,-7315,-636,-780,-7315,1006.4,230.81,243.02,405,-4115,-4192,0,0,0,34.1344597,-118.1457357,3.08,357.98,1.44,16,1,3,0,1,0
3147961,-1762,-1740,-7292,-736,-738,-7292,1042.3,225.08,237.29,204,-4942,-4433,0,0,0,34.1344609,-118.1457362,3.33,359.30,1.44,16,1,3,0,1,0
3148061,-1812,-1640,-7265,-786,-638,-7265,1012.3,219.07,231.28,151,-5764,-6164,0,0,0,34.1344621,-118.1457367,3.35,356.92,1.44,16,1,3,0,1,0
3148161,-1850,-1610,-7320,-824,-608,-7320,1024.0,216.42,228.64,1142,-6391,-7934,0,0,0,34.1344634,-118.1457371,2.88,350.04,1.44,16,1,3,0,1,0
3148261,-1875,-1697,-7265,-849,-695,-7265,1097.2,219.30,231.52,36,-3407,-4409,0,0,0,34.1344644,-118.1457371,3.22,358.65,1.33,17,1,3,0,1,0
3148361,-1770,-1615,-7270,-744,-613,-7270,964.0,219.49,231.70,617,-4502,-4687,0,0,0,34.1344652,-118.1457375,2.07,2.33,1.33,17,1,3,0,1,0
3148461,-1887,-1687,-7240,-861,-685,-7240,1100.2,218.51,230.72,-617,-4497,-4567,0,0,0,34.1344650,-118.1457373,1.47,8.66,1.33,17,1,3,0,1,0
3148561,-2287,-1797,-7092,-1261,-795,-7092,1490.7,212.23,224.45,667,-7233,-5021,0,0,0,34.1344653,-118.1457374,1.62,10.53,1.33,17,1,3,0,1,0
3148661,-2300,-1725,-7110,-1274,-723,-7110,1464.9,209.58,221.79,813,-8416,-5606,0,0,0,34.1344657,-118.1457376,1.92,8.20,1.33,17,1,3,0,1,0
3148761,-2225,-1787,-7087,-1199,-785,-7087,1433.1,213.21,225.43,-1140,-5616,-4994,0,0,0,34.1344664,-118.1457379,2.35,1.46,1.33,17,1,3,0,1,0
3148861,-2212,-1885,-7110,-1186,-883,-7110,1478.6,216.67,228.88,-5,-2814,-3945,0,0,0,34.1344675,-118.1457382,2.67,358.27,1.33,17,1,3,0,1,0
3148961,-2177,-1707,-7097,-1151,-705,-7097,1349.8,211.49,223.70,300,-4530,-3137,0,0,0,34.1344684,-118.1457385,2.26,1.91,1.33,17,1,3,0,1,0
3149061,-2170,-1692,-7102,-1144,-690,-7102,1336.0,211.10,223.31,331,-6275,-5125,0,0,0,34.1344692,-118.1457386,1.75,6.75,1.33,17,1,3,0,1,0
3149161,-2145,-1590,-7140,-1119,-588,-7140,1264.1,207.72,219.94,848,-8547,-6289,0,0,0,34.1344700,-118.1457386,2.19,7.37,1.33,17,1,3,0,1,0
3149261,-2117,-1490,-7157,-1091,-488,-7157,1195.2,204.10,216.31,958,-4510,-6349,0,0,0,34.1344708,-118.1457388,1.36,8.15,1.33,17,1,3,0,1,0
3149361,-2085,-1480,-7167,-1059,-478,-7167,1161.9,204.29,216.51,357,-6099,-2554,0,0,0,34.1344718,-118.1457390,2.21,1.26,1.33,17,1,3,0,1,0
3149461,-2005,-1547,-7190,-979,-545,-7190,1120.5,209.10,221.32,-478,-4247,-4769,0,0,0,34.1344728,-118.1457392,2.25,0.74,1.33,17,1,3,0,1,0
3149561,-2090,-1702,-7172,-1064,-700,-7172,1273.6,213.34,225.56,-89,-5736,-4446,0,0,0,34.1344737,-118.1457393,2.21,4.07,1.33,17,1,3,0,1,0
3149661,-2080,-1782,-7120,-1054,-780,-7120,1311.2,216.50,228.72,148,-7770,-6501,0,0,0,34.1344744,-118.1457394,1.94,5.96,1.33,17,1,3,0,1,0
3149761,-2090,-1740,-7167,-1064,-738,-7167,1294.9,214.75,226.96,286,-5265,-8377,0,0,0,34.1344751,-118.1457395,1.52,9.21,1.33,17,1,3,0,1,0
3149861,-2032,-1760,-7102,-1006,-758,-7102,1259.6,217.00,229.21,-1153,-3321,-4015,0,0,0,34.1344760,-118.1457395,2.17,8.05,1.33,17,1,3,0,1,0
3149961,-2005,-1712,-7172,-979,-710,-7172,1209.4,215.95,228.17,934,-4682,-3768,0,0,0,34.1344770,-118.1457396,2.45,3.71,1.33,17,1,3,0,1,0
3150062,-2057,-1620,-7205,-1031,-618,-7205,1202.0,210.94,223.16,-169,-5465,-4487,0,0,0,34.1344779,-118.1457396,2.35,3.99,1.33,17,1,3,0,1,0
3150161,-2090,-1600,-7200,-1064,-598,-7200,1220.5,209.34,221.55,141,-6619,-6341,0,0,0,34.1344790,-118.1457397,2.95,6.03,1.44,16,1,3,0,1,0
3150261,-2000,-1460,-7240,-974,-458,-7240,1076.3,205.18,217.40,1755,-6392,-8271,0,0,0,34.1344800,-118.1457395,2.18,6.18,1.44,16,1,3,0,1,0
3150361,-2010,-1557,-7250,-984,-555,-7250,1129.7,209.42,221.64,-188,-3826,-3365,0,0,0,34.1344807,-118.1457393,2.21,5.88,1.33,17,1,3,0,1,0
3150461,-1887,-1432,-7272,-861,-430,-7272,962.4,206.54,218.75,632,-5087,-4759,0,0,0,34.1344814,-118.1457391,2.03,6.64,1.33,17,1,3,0,1,0
3150561,-1865,-1720,-7282,-839,-718,-7282,1104.3,220.56,232.77,-569,-4418,-4140,0,0,0,34.1344819,-118.1457389,1.80,6.20,1.33,17,1,3,0,1,0
3150661,-1930,-1787,-7325,-904,-785,-7325,1197.3,220.97,233.19,46,-6486,-5627,0,0,0,34.1344826,-118.1457389,1.84,0.82,1.33,17,1,3,0,1,0
3150761,-1935,-1832,-7217,-909,-830,-7217,1230.9,222.40,234.62,-35,-8562,-4922,0,0,0,34.1344834,-118.1457389,2.00,358.71,1.33,17,1,3,0,1,0
3150861,-1897,-1822,-7302,-871,-820,-7302,1196.3,223.27,235.49,-807,-4835,-4864,0,0,0,34.1344842,-118.1457389,2.03,358.91,1.33,17,1,3,0,1,0
3150961,-1727,-1662,-7315,-701,-660,-7315,962.8,223.27,235.49,225,-3784,-4041,0,0,0,34.1344849,-118.1457388,1.85,0.69,1.33,17,1,3,0,1,0
3151061,-1785,-1610,-7320,-759,-608,-7320,972.5,218.70,230.91,502,-4413,-4702,0,0,0,34.1344855,-118.1457387,1.97,352.03,1.33,17,1,3,0,1,0
3151161,-1802,-1625,-7362,-776,-623,-7362,995.1,218.76,230.97,-5,-5108,-5202,0,0,0,34.1344861,-118.1457387,1.78,356.27,1.33,17,1,3,0,1,0
3151261,-1752,-1580,-7325,-726,-578,-7325,928.0,218.52,230.74,-331,-7592,-6186,0,0,0,34.1344863,-118.1457394,1.63,359.49,1.33,17,1,3,0,1,0
3151361,-1720,-1450,-7400,-694,-448,-7400,826.0,212.84,225.06,1139,-4855,-7044,0,0,0,34.1344869,-118.1457407,2.34,347.81,1.33,17,1,3,0,1,0
3151462,-1667,-1517,-7440,-641,-515,-7440,822.3,218.78,231.00,196,-5581,-3864,0,0,0,34.1344873,-118.1457416,1.78,354.89,1.33,17,1,3,0,1,0
3151561,-1682,-1657,-7375,-656,-655,-7375,927.0,224.96,237.17,-271,-3849,-4360,0,0,0,34.1344873,-118.1457416,1.78,354.89,1.33,17,1,3,0,1,0
3151661,-1747,-1697,-7347,-721,-695,-7347,1001.4,223.95,236.16,-129,-5582,-4916,0,0,0,34.1344887,-118.1457426,1.63,13.53,1.33,17,1,3,0,1,0
3151761,-1875,-1780,-7342,-849,-778,-7342,1151.6,222.50,234.72,706,-7004,-6976,0,0,0,34.1344901,-118.1457431,1.85,355.22,1.33,17,1,3,0,1,0
3151861,-1925,-1780,-7310,-899,-778,-7310,1188.9,220.87,233.09,442,-6341,-7183,0,0,0,34.1344909,-118.1457432,1.94,359.54,1.33,17,1,3,0,1,0
3151961,-1887,-1730,-7302,-861,-728,-7302,1127.5,220.22,232.43,-696,-4212,-5070,0,0,0,34.1344920,-118.1457430,2.27,7.06,1.33,17,1,3,0,1,0
3152061,-1817,-1662,-7412,-791,-660,-7412,1030.2,219.84,232.06,657,-4713,-3802,0,0,0,34.1344925,-118.1457428,2.84,6.18,1.33,17,1,3,0,1,0
3152161,-1770,-1645,-7370,-744,-643,-7370,983.4,220.84,233.05,0,-4737,-4275,0,0,0,34.1344934,-118.1457426,2.10,13.19,1.33,17,1,3,0,1,0
3152261,-1807,-1610,-7385,-781,-608,-7385,989.8,217.90,230.12,-120,-5611,-5610,0,0,0,34.1344938,-118.1457421,1.30,25.75,1.33,17,1,3,0,1,0
3152361,-1565,-1465,-7505,-539,-463,-7505,710.6,220.66,232.88,-154,-6941,-8095,0,0,0,34.1344943,-118.1457415,1.28,34.25,1.33,17,1,3,0,1,0
3152461,-1657,-1372,-7492,-631,-370,-7492,731.5,210.39,222.60,-120,-3090,-5628,0,0,0,34.1344953,-118.1457409,1.37,18.55,1.33,17,1,3,0,1,0
3152561,-1550,-1315,-7542,-524,-313,-7542,610.4,210.85,223.07,926,-5451,-3949,0,0,0,34.1344968,-118.1457406,2.54,2.67,1.33,17,1,3,0,1,0
3152661,-1560,-1470,-7542,-534,-468,-7542,710.1,221.23,233.45,-117,-4316,-4452,0,0,0,34.1344979,-118.1457403,3.15,359.24,1.33,17,1,3,0,1,0
3152761,-1620,-1527,-7515,-594,-525,-7515,792.8,221.47,233.69,-23,-6082,-5709,0,0,0,34.1344990,-118.1457400,2.12,11.20,1.33,17,1,3,0,1,0
3152861,-1620,-1577,-7590,-594,-575,-7590,826.7,224.07,236.29,244,-8160,-6169,0,0,0,34.1344998,-118.1457395,1.66,19.12,1.33,17,1,3,0,1,0
3152961,-1635,-1500,-7632,-609,-498,-7632,786.7,219.27,231.49,-284,-5402,-6707,0,0,0,34.1345010,-118.1457392,2.38,20.04,1.33,17,1,3,0,1,0
3153061,-1630,-1562,-7595,-604,-560,-7595,823.7,222.84,235.05,-434,-2563,-5002,0,0,0,34.1345024,-118.1457389,2.92,18.52,1.33,17,1,3,0,1,0
3153161,-1657,-1512,-7627,-631,-510,-7627,811.3,218.95,231.16,18,-4329,-3822,0,0,0,34.1345035,-118.1457383,2.68,16.36,1.33,17,1,3,0,1,0
3153261,-1640,-1495,-7612,-614,-493,-7612,787.4,218.76,230.98,-123,-5119,-5405,0,0,0,34.1345042,-118.1457378,0.96,18.34,1.33,17,1,3,0,1,0
3153361,-1662,-1485,-7632,-636,-483,-7632,798.6,217.21,229.43,-170,-7012,-6827,0,0,0,34.1345044,-118.1457376,2.04,5.77,1.33,17,1,3,0,1,0
3153461,-1620,-1282,-7655,-594,-280,-7655,656.7,205.24,217.45,732,-4973,-8493,0,0,0,34.1345036,-118.1457374,3.05,3.11,1.33,17,1,3,0,1,0
3153561,-1752,-1407,-7570,-726,-405,-7570,831.3,209.16,221.37,-466,-4240,-3267,0,0,0,34.1345029,-118.1457370,2.06,7.98,1.33,17,1,3,0,1,0
3153661,-1752,-1320,-7580,-726,-318,-7580,792.6,203.65,215.87,3,-3924,-5651,0,0,0,34.1345024,-118.1457366,2.20,10.08,1.33,17,1,3,0,1,0
3153761,-1747,-1547,-7557,-721,-545,-7557,903.8,217.09,229.30,-1134,-4597,-4331,0,0,0,34.1345018,-118.1457360,2.02,16.34,1.33,17,1,3,0,1,0
3153861,-1865,-1692,-7502,-839,-690,-7502,1086.3,219.43,231.65,231,-6477,-6873,0,0,0,34.1345012,-118.1457356,1.65,9.12,1.33,17,1,3,0,1,0
3153961,-1952,-1745,-7477,-926,-743,-7477,1187.2,218.74,230.96,107,-6141,-7273,0,0,0,34.1345009,-118.1457356,2.30,352.31,1.33,17,1,3,0,1,0
3154061,-2005,-1730,-7440,-979,-728,-7440,1220.0,216.64,228.85,-795,-4565,-4062,0,0,0,34.1345006,-118.1457358,2.48,346.41,1.33,17,1,3,0,1,0
3154161,-1775,-1792,-7395,-749,-790,-7395,1088.6,226.53,238.74,135,-3577,-4280,0,0,0,34.1345004,-118.1457358,2.26,349.46,1.33,17,1,3,0,1,0
3154261,-1832,-1735,-7325,-806,-733,-7325,1089.5,222.28,234.50,-27,-4432,-4880,0,0,0,34.1345005,-118.1457359,1.83,355.85,1.33,17,1,3,0,1,0
3154361,-1945,-1792,-7347,-919,-790,-7347,1211.9,220.68,232.90,-241,-5556,-5032,0,0,0,34.1345005,-118.1457360,1.54,352.67,1.33,17,1,3,0,1,0
3154461,-1770,-1725,-7390,-744,-723,-7390,1037.4,224.18,236.40,274,-7688,-7100,0,0,0,34.1345007,-118.1457363,1.55,344.26,1.33,17,1,3,0,1,0
3154561,-1800,-1712,-7385,-774,-710,-7385,1050.3,222.53,234.75,87,-3652,-6277,0,0,0,34.1345008,-118.1457363,2.40,350.10,1.44,16,1,3,0,1,0
3154661,-1752,-1725,-7330,-726,-723,-7330,1024.6,224.88,237.10,-260,-5002,-3866,0,0,0,34.1345013,-118.1457365,2.41,351.15,1.44,16,1,3,0,1,0
3154762,-1775,-1880,-7325,-749,-878,-7325,1154.1,229.53,241.75,-612,-4033,-4413,0,0,0,34.1345023,-118.1457366,2.75,357.61,1.44,16,1,3,0,1,0
3154861,-1765,-1922,-7282,-739,-920,-7282,1180.1,231.23,243.44,-594,-5852,-5174,0,0,0,34.1345023,-118.1457366,2.75,357.61,1.44,16,1,3,0,1,0
3154961,-1802,-1972,-7330,-776,-970,-7330,1242.2,231.34,243.56,-387,-7309,-6069,0,0,0,34.1345039,-118.1457366,1.87,1.90,1.44,16,1,3,0,1,0
3155061,-1812,-1947,-7305,-786,-945,-7305,1229.2,230.25,242.46,7,-5164,-6944,0,0,0,34.1345041,-118.1457369,1.54,348.38,1.44,16,1,3,0,1,0
3155161,-1695,-1922,-7297,-669,-920,-7297,1137.5,233.98,246.19,-340,-3250,-5354,0,0,0,34.1345042,-118.1457373,1.88,329.10,1.44,16,1,3,0,1,0
3155261,-1715,-1890,-7347,-689,-888,-7347,1124.0,232.19,244.41,509,-4617,-4015,0,0,0,34.1345054,-118.1457375,1.33,335.17,1.33,17,1,3,0,1,0
3155361,-1850,-1900,-7325,-824,-898,-7325,1218.8,227.46,239.68,-245,-4772,-4584,0,0,0,34.1345066,-118.1457374,1.38,338.05,1.33,17,1,3,0,1,0
3155461,-1800,-1875,-7335,-774,-873,-7335,1166.7,228.44,240.66,-347,-6733,-6269,0,0,0,34.1345079,-118.1457374,2.30,351.42,1.33,17,1,3,0,1,0
3155561,-1690,-1725,-7450,-664,-723,-7450,981.6,227.44,239.65,1759,-6127,-9321,0,0,0,34.1345094,-118.1457376,3.07,351.62,1.33,17,1,3,0,1,0
3155661,-1860,-1802,-7385,-834,-800,-7385,1155.7,223.81,236.02,-495,-3780,-3320,0,0,0,34.1345107,-118.1457379,2.72,348.99,1.33,17,1,3,0,1,0
3155761,-1737,-1750,-7407,-711,-748,-7407,1032.0,226.45,238.67,62,-4745,-5438,0,0,0,34.1345119,-118.1457381,1.60,349.87,1.33,17,1,3,0,1,0
3155861,-1802,-1937,-7297,-776,-935,-7297,1215.1,230.31,242.53,-1475,-4376,-3760,0,0,0,34.1345132,-118.1457382,1.11,353.78,1.33,17,1,3,0,1,0
3155961,-1907,-1995,-7277,-881,-993,-7277,1327.5,228.42,240.64,-563,-6039,-5248,0,0,0,34.1345147,-118.1457382,1.59,353.10,1.33,17,1,3,0,1,0
3156061,-1882,-1905,-7250,-856,-903,-7250,1244.2,226.53,238.75,501,-7906,-7265,0,0,0,34.1345163,-118.1457383,1.00,349.25,1.33,17,1,3,0,1,0
3156161,-1977,-1962,-7277,-951,-960,-7277,1351.3,225.27,237.49,-972,-5239,-3662,0,0,0,34.1345176,-118.1457386,1.99,338.36,1.33,17,1,3,0,1,0
3156261,-1925,-1842,-7330,-899,-840,-7330,1230.4,223.06,235.27,97,-3641,-4336,0,0,0,34.1345191,-118.1457387,2.24,350.65,1.33,17,1,3,0,1,0
3156361,-1995,-1827,-7310,-969,-825,-7310,1272.6,220.41,232.63,166,-4481,-4013,0,0,0,34.1345205,-118.1457388,2.57,357.14,1.33,17,1,3,0,1,0
3156461,-2075,-1787,-7330,-1049,-785,-7330,1310.2,216.81,229.02,-463,-5897,-5113,0,0,0,34.1345215,-118.1457389,1.45,359.48,1.33,17,1,3,0,1,0
3156561,-2052,-1770,-7265,-1026,-768,-7265,1281.6,216.82,229.03,-252,-7708,-6095,0,0,0,34.1345223,-118.1457391,0.71,351.35,1.33,17,1,3,0,1,0
3156661,-2080,-1702,-7315,-1054,-700,-7315,1265.3,213.59,225.81,384,-4446,-5851,0,0,0,34.1345231,-118.1457392,0.64,0.00,1.33,17,1,3,0,1,0
3156761,-1915,-1630,-7297,-889,-628,-7297,1088.4,215.24,227.45,-230,-5804,-3575,0,0,0,34.1345245,-118.1457392,1.90,5.98,1.33,17,1,3,0,1,0
3156861,-1907,-1720,-7292,-881,-718,-7292,1136.5,219.18,231.40,-1021,-4064,-4380,0,0,0,34.1345259,-118.1457390,2.05,7.16,1.33,17,1,3,0,1,0
3156961,-2005,-1827,-7287,-979,-825,-7287,1280.3,220.12,232.34,-906,-5494,-4280,0,0,0,34.1345269,-118.1457389,1.74,356.95,1.33,17,1,3,0,1,0
3157061,-2032,-1802,-7212,-1006,-800,-7212,1285.3,218.49,230.71,-143,-7510,-6808,0,0,0,34.1345278,-118.1457388,0.74,340.29,1.33,17,1,3,0,1,0
3157161,-2165,-1787,-7232,-1139,-785,-7232,1383.3,214.57,226.79,233,-5688,-7437,0,0,0,34.1345287,-118.1457389,0.84,337.13,1.33,17,1,3,0,1,0
3157261,-2245,-1787,-7157,-1219,-785,-7157,1449.9,212.78,225.00,-576,-4392,-3968,0,0,0,34.1345297,-118.1457390,1.56,356.23,1.33,17,1,3,0,1,0
3157361,-2177,-1765,-7222,-1151,-763,-7222,1380.9,213.54,225.76,275,-4743,-4239,0,0,0,34.1345312,-118.1457392,2.07,352.95,1.33,17,1,3,0,1,0
3157461,-2352,-1730,-7185,-1326,-728,-7185,1512.7,208.77,220.98,-119,-5198,-4617,0,0,0,34.1345331,-118.1457394,2.31,350.66,1.33,17,1,3,0,1,0
3157561,-2455,-1620,-7130,-1429,-618,-7130,1556.9,203.39,215.60,385,-7104,-5502,0,0,0,34.1345348,-118.1457398,1.92,340.32,1.33,17,1,3,0,1,0
3157661,-2577,-1527,-7142,-1551,-525,-7142,1637.4,198.70,210.92,629,-7012,-6731,0,0,0,34.1345362,-118.1457401,1.68,334.94,1.33,17,1,3,0,1,0
3157761,-2685,-1505,-7092,-1659,-503,-7092,1733.6,196.87,209.08,300,-6040,-3717,0,0,0,34.1345375,-118.1457404,2.28,343.52,1.33,17,1,3,0,1,0
3157861,-2812,-1552,-7060,-1786,-550,-7060,1868.8,197.12,209.33,47,-4579,-3996,0,0,0,34.1345390,-118.1457407,3.26,353.28,1.33,17,1,3,0,1,0
3157961,-2802,-1760,-7012,-1776,-758,-7012,1931.0,203.11,215.33,-709,-4782,-2584,0,0,0,34.1345407,-118.1457406,2.96,359.40,1.33,17,1,3,0,1,0
3158061,-2877,-1630,-6952,-1851,-628,-6952,1954.6,198.74,210.96,433,-7752,-4628,0,0,0,34.1345423,-118.1457407,2.79,356.53,1.33,17,1,3,0,1,0
3158161,-2872,-1542,-6952,-1846,-540,-6952,1923.4,196.31,208.52,205,-8646,-4877,0,0,0,34.1345431,-118.1457406,0.75,1.21,1.33,17,1,3,0,1,0
3158261,-2925,-1590,-6910,-1899,-588,-6910,1987.9,197.20,209.42,-885,-5972,-3218,0,0,0,34.1345442,-118.1457407,2.02,1.44,1.33,17,1,3,0,1,0
3158361,-2890,-1460,-6980,-1864,-458,-6980,1919.4,193.80,206.02,225,-4694,-3922,0,0,0,34.1345458,-118.1457406,2.38,3.56,1.33,17,1,3,0,1,0
3158461,-2962,-1377,-6990,-1936,-375,-6990,1972.0,190.96,203.18,704,-5599,-3177,0,0,0,34.1345475,-118.1457405,2.13,354.08,1.33,17,1,3,0,1,0
3158561,-3032,-1302,-6942,-2006,-300,-6942,2028.3,188.51,200.72,101,-6338,-3611,0,0,0,34.1345487,-118.1457405,2.30,344.32,1.33,17,1,3,0,1,0
3158661,-2962,-1355,-6942,-1936,-353,-6942,1967.9,190.33,202.55,-390,-9093,-4400,0,0,0,34.1345495,-118.1457408,2.02,343.07,1.33,17,1,3,0,1,0
3158761,-2985,-1277,-6930,-1959,-275,-6930,1978.2,187.99,200.21,1281,-5886,-5201,0,0,0,34.1345506,-118.1457409,1.59,349.59,1.33,17,1,3,0,1,0
3158861,-3017,-1147,-6935,-1991,-145,-6935,1996.3,184.17,196.38,386,-6684,-2271,0,0,0,34.1345518,-118.1457408,1.90,0.85,1.33,17,1,3,0,1,0
3158961,-3027,-1315,-6935,-2001,-313,-6935,2025.3,188.89,201.11,81,-4878,-2759,0,0,0,34.1345530,-118.1457404,1.63,6.17,1.33,17,1,3,0,1,0
3159062,-3070,-1350,-6875,-2044,-348,-6875,2073.4,189.66,201.88,-321,-6712,-2332,0,0,0,34.1345532,-118.1457400,1.71,0.25,1.33,17,1,3,0,1,0
3159161,-3082,-1412,-6882,-2056,-410,-6882,2096.5,191.28,203.49,1042,-9153,-5235,0,0,0,34.1345532,-118.1457400,1.71,0.25,1.33,17,1,3,0,1,0
3159261,-3040,-1372,-6882,-2014,-370,-6882,2047.7,190.41,202.63,118,-6773,-7006,0,0,0,34.1345543,-118.1457401,2.54,341.25,1.33,17,1,3,0,1,0
3159361,-3065,-1427,-6920,-2039,-425,-6920,2082.8,191.77,203.99,-678,-5377,-3311,0,0,0,34.1345556,-118.1457404,2.39,346.51,1.33,17,1,3,0,1,0
3159461,-2975,-1365,-6915,-1949,-363,-6915,1982.5,190.55,202.77,1157,-5529,-2771,0,0,0,34.1345569,-118.1457402,2.51,4.00,1.33,17,1,3,0,1,0
3159561,-3075,-1267,-6910,-2049,-265,-6910,2066.1,187.37,199.59,-316,-5537,-3279,0,0,0,34.1345579,-118.1457397,2.48,18.70,1.33,17,1,3,0,1,0
3159661,-3242,-1142,-6762,-2216,-140,-6762,2220.4,183.61,195.83,467,-7527,-4351,0,0,0,34.1345591,-118.1457395,1.70,22.61,1.33,17,1,3,0,1,0
3159761,-3145,-1075,-6860,-2119,-73,-6860,2120.3,181.97,194.19,1967,-8261,-5778,0,0,0,34.1345604,-118.1457395,1.38,1.02,1.33,17,1,3,0,1,0
3159861,-3112,-1162,-6870,-2086,-160,-6870,2092.1,184.39,196.60,-60,-4255,-2758,0,0,0,34.1345620,-118.1457397,2.03,348.79,1.33,17,1,3,0,1,0
3159961,-3022,-1157,-6920,-1996,-155,-6920,2002.0,184.44,196.66,748,-5942,-4152,0,0,0,34.1345637,-118.1457398,2.59,348.66,1.33,17,1,3,0,1,0
3160061,-3070,-1350,-6842,-2044,-348,-6842,2073.4,189.66,201.88,-480,-4956,-1896,0,0,0,34.1345658,-118.1457397,2.93,4.61,1.33,17,1,3,0,1,0
3160161,-3087,-1382,-6812,-2061,-380,-6812,2095.7,190.45,202.66,568,-7711,-4308,0,0,0,34.1345674,-118.1457396,3.45,12.74,1.33,17,1,3,0,1,0
3160261,-3145,-1397,-6805,-2119,-395,-6805,2155.5,190.56,202.78,300,-10089,-4496,0,0,0,34.1345685,-118.1457395,1.59,2.09,1.33,17,1,3,0,1,0
3160361,-3275,-1445,-6762,-2249,-443,-6762,2292.2,191.14,203.36,-939,-6050,-2834,0,0,0,34.1345698,-118.1457395,2.11,354.15,1.33,17,1,3,0,1,0
3160461,-3162,-1450,-6807,-2136,-448,-6807,2182.5,191.85,204.06,95,-4306,-3283,0,0,0,34.1345714,-118.1457395,3.68,357.75,1.33,17,1,3,0,1,0
3160561,-3070,-1330,-6832,-2044,-328,-6832,2070.1,189.12,201.33,696,-5250,-2924,0,0,0,34.1345730,-118.1457395,3.28,0.34,1.33,17,1,3,0,1,0
3160661,-3125,-1235,-6910,-2099,-233,-6910,2111.9,186.33,198.55,-52,-6226,-2390,0,0,0,34.1345746,-118.1457393,4.05,1.42,1.33,17,1,3,0,1,0
3160761,-2857,-1215,-6975,-1831,-213,-6975,1843.3,186.64,198.85,721,-9201,-4727,0,0,0,34.1345763,-118.1457395,2.69,350.64,1.33,17,1,3,0,1,0
3160861,-2512,-1215,-7125,-1486,-213,-7125,1501.2,188.16,200.37,1059,-5980,-5659,0,0,0,34.1345778,-118.1457396,2.57,347.95,1.33,17,1,3,0,1,0
3160961,-2220,-1220,-7205,-1194,-218,-7205,1213.7,190.35,202.56,444,-6548,-4658,0,0,0,34.1345792,-118.1457395,1.96,351.82,1.33,17,1,3,0,1,0
3161061,-2107,-1262,-7240,-1081,-260,-7240,1111.8,193.52,205.74,16,-4568,-5315,0,0,0,34.1345806,-118.1457392,1.88,2.15,1.33,17,1,3,0,1,0
3161161,-2155,-1432,-7207,-1129,-430,-7207,1208.1,200.85,213.07,-499,-5215,-2831,0,0,0,34.1345819,-118.1457390,1.66,7.14,1.33,17,1,3,0,1,0
3161261,-1945,-1450,-7282,-919,-448,-7282,1022.4,205.99,218.20,-19,-5806,-5617,0,0,0,34.1345832,-118.1457392,3.00,0.01,1.33,17,1,3,0,1,0
3161361,-1720,-1455,-7315,-694,-453,-7315,828.8,213.13,225.35,1436,-7145,-8602,0,0,0,34.1345844,-118.1457394,2.46,354.50,1.33,17,1,3,0,1,0
3161461,-1725,-1505,-7305,-699,-503,-7305,861.2,215.74,227.95,-574,-3725,-5094,0,0,0,34.1345862,-118.1457398,2.00,352.48,1.33,17,1,3,0,1,0
3161561,-1560,-1370,-7310,-534,-368,-7310,648.5,214.57,226.79,1064,-3988,-4067,0,0,0,34.1345880,-118.1457401,2.16,347.44,1.33,17,1,3,0,1,0
3161661,-1442,-1287,-7407,-416,-285,-7407,504.3,214.41,226.63,74,-3981,-5602,0,0,0,34.1345894,-118.1457405,2.16,347.06,1.33,17,1,3,0,1,0
3161761,-1500,-1237,-7297,-474,-235,-7297,529.1,206.37,218.59,-295,-5399,-6351,0,0,0,34.1345908,-118.1457407,1.90,355.24,1.33,17,1,3,0,1,0
3161861,-1382,-1065,-7335,-356,-63,-7335,361.5,190.04,202.25,1123,-5457,-8496,0,0,0,34.1345920,-118.1457408,1.55,5.35,1.33,17,1,3,0,1,0
3161961,-1475,-1085,-7325,-449,-83,-7325,456.6,190.47,202.69,-36,-2853,-5433,0,0,0,34.1345931,-118.1457409,1.70,11.30,1.33,17,1,3,0,1,0
3162061,-1357,-1055,-7305,-331,-53,-7305,335.2,189.10,201.31,159,-4623,-4864,0,0,0,34.1345948,-118.1457410,2.27,6.51,1.33,17,1,3,0,1,0
3162161,-1330,-1310,-7287,-304,-308,-7287,432.8,225.37,237.59,-889,-3887,-4013,0,0,0,34.1345962,-118.1457412,2.71,358.08,1.33,17,1,3,0,1,0
3162261,-1330,-1310,-7330,-304,-308,-7330,432.8,225.37,237.59,255,-5617,-6270,0,0,0,34.1345975,-118.1457416,1.89,354.95,1.33,17,1,3,0,1,0
3162361,-1297,-1267,-7315,-271,-265,-7315,379.0,224.36,236.57,748,-7889,-7775,0,0,0,34.1345986,-118.1457416,1.57,0.86,1.33,17,1,3,0,1,0
3162461,-1350,-1325,-7297,-324,-323,-7297,457.5,224.91,237.13,-1209,-3909,-4986,0,0,0,34.1345998,-118.1457415,1.43,358.35,1.33,17,1,3,0,1,0
3162561,-1340,-1247,-7292,-314,-245,-7292,398.3,217.96,230.18,146,-2772,-4965,0,0,0,34.1346009,-118.1457416,1.94,355.89,1.33,17,1,3,0,1,0
3162661,-1405,-1190,-7292,-379,-188,-7292,423.1,206.38,218.60,342,-4058,-4513,0,0,0,34.1346023,-118.1457416,2.75,352.92,1.33,17,1,3,0,1,0
3162761,-1442,-1277,-7245,-416,-275,-7245,498.7,213.47,225.68,-236,-4578,-6091,0,0,0,34.1346036,-118.1457416,2.17,353.86,1.39,16,1,3,0,1,0
3162861,-1335,-1190,-7250,-309,-188,-7250,361.7,211.32,223.53,62,-7008,-6891,0,0,0,34.1346049,-118.1457415,1.78,357.37,1.39,16,1,3,0,1,0
3162961,-1442,-1162,-7245,-416,-160,-7245,445.7,201.04,213.25,1068,-3208,-7390,0,0,0,34.1346063,-118.1457415,2.07,0.24,1.33,17,1,3,0,1,0
3163061,-1465,-1220,-7190,-439,-218,-7190,490.1,206.41,218.62,414,-5294,-3906,0,0,0,34.1346077,-118.1457412,2.31,359.14,1.33,17,1,3,0,1,0
3163161,-1532,-1340,-7157,-506,-338,-7157,608.5,213.74,225.96,275,-3786,-4191,0,0,0,34.1346086,-118.1457414,2.39,353.22,1.33,17,1,3,0,1,0
3163261,-1570,-1360,-7162,-544,-358,-7162,651.2,213.35,225.56,392,-5174,-4923,0,0,0,34.1346096,-118.1457415,1.92,352.04,1.33,17,1,3,0,1,0
3163361,-1537,-1397,-7175,-511,-395,-7175,645.9,217.70,229.92,744,-6742,-7372,0,0,0,34.1346105,-118.1457416,1.47,2.36,1.33,17,1,3,0,1,0
3163461,-1532,-1292,-7185,-506,-290,-7185,583.2,209.82,222.03,-322,-4566,-8489,0,0,0,34.1346114,-118.1457414,1.69,10.87,1.33,17,1,3,0,1,0
3163561,-1462,-1297,-7190,-436,-295,-7190,526.4,214.08,226.30,-650,-3211,-5920,0,0,0,34.1346128,-118.1457412,2.31,9.84,1.33,17,1,3,0,1,0
3163661,-1527,-1370,-7185,-501,-368,-7185,621.6,216.30,228.51,944,-4357,-3891,0,0,0,34.1346144,-118.1457411,3.10,2.25,1.33,17,1,3,0,1,0
3163761,-1640,-1432,-7130,-614,-430,-7130,749.6,215.00,227.22,-178,-3946,-4586,0,0,0,34.1346156,-118.1457411,2.51,357.06,1.33,17,1,3,0,1,0
3163861,-1602,-1432,-7152,-576,-430,-7152,718.8,216.74,228.96,191,-5409,-6727,0,0,0,34.1346163,-118.1457408,1.62,3.97,1.33,17,1,3,0,1,0
3163961,-1447,-1370,-7185,-421,-368,-7185,559.2,221.16,233.37,1103,-5986,-8475,0,0,0,34.1346174,-118.1457410,0.66,355.78,1.33,17,1,3,0,1,0
3164061,-1512,-1360,-7180,-486,-358,-7180,603.6,216.38,228.59,20,-3381,-5118,0,0,0,34.1346189,-118.1457410,1.66,343.36,1.33,17,1,3,0,1,0
3164161,-1427,-1360,-7175,-401,-358,-7175,537.6,221.76,233.97,361,-3964,-5365,0,0,0,34.1346204,-118.1457413,2.09,348.77,1.33,17,1,3,0,1,0
3164261,-1502,-1460,-7105,-476,-458,-7105,660.6,223.90,236.11,-677,-3773,-3615,0,0,0,34.1346218,-118.1457414,2.90,354.65,1.33,17,1,3,0,1,0
3164361,-1457,-1495,-7125,-431,-493,-7125,654.8,228.84,241.05,608,-6555,-6719,0,0,0,34.1346233,-118.1457414,2.25,358.67,1.33,17,1,3,0,1,0
3164461,-1545,-1580,-7142,-519,-578,-7142,776.8,228.08,240.29,771,-6931,-7269,0,0,0,34.1346245,-118.1457414,1.40,0.91,1.33,17,1,3,0,1,0
3164561,-1700,-1547,-7065,-674,-545,-7065,866.8,218.96,231.18,-28,-4929,-4184,0,0,0,34.1346253,-118.1457414,1.48,358.99,1.33,17,1,3,0,1,0
3164661,-1570,-1517,-7147,-544,-515,-7147,749.1,223.43,235.65,184,-2897,-5219,0,0,0,34.1346263,-118.1457415,1.36,346.37,1.33,17,1,3,0,1,0
3164761,-1502,-1407,-7115,-476,-405,-7115,625.0,220.39,232.61,698,-4305,-4956,0,0,0,34.1346269,-118.1457416,1.52,332.34,1.33,17,1,3,0,1,0
3164861,-1582,-1512,-7172,-556,-510,-7172,754.5,222.53,234.75,103,-4591,-5126,0,0,0,34.1346280,-118.1457417,1.93,353.07,1.33,17,1,3,0,1,0
3164961,-1437,-1490,-7157,-411,-488,-7157,638.0,229.90,242.11,360,-7154,-6245,0,0,0,34.1346293,-118.1457417,1.56,351.99,1.33,17,1,3,0,1,0
3165061,-1297,-1440,-7195,-271,-438,-7195,515.1,238.25,250.47,1041,-4113,-8602,0,0,0,34.1346304,-118.1457416,1.84,2.41,1.33,17,1,3,0,1,0
3165161,-1320,-1542,-7180,-294,-540,-7180,614.8,241.43,253.65,699,-5172,-3848,0,0,0,34.1346312,-118.1457417,1.84,4.33,1.33,17,1,3,0,1,0
3165261,-1297,-1557,-7190,-271,-555,-7190,617.6,243.97,256.19,258,-3827,-5135,0,0,0,34.1346326,-118.1457418,2.25,357.87,1.33,17,1,3,0,1,0
3165361,-1607,-1527,-7180,-581,-525,-7180,783.1,222.10,234.32,268,-5006,-5959,0,0,0,34.1346337,-118.1457420,1.48,348.89,1.33,17,1,3,0,1,0
3165461,-1887,-1562,-7082,-861,-560,-7082,1027.1,213.04,225.26,661,-6749,-6905,0,0,0,34.1346346,-118.1457420,0.97,345.14,1.33,17,1,3,0,1,0
3165561,-1987,-1495,-7087,-961,-493,-7087,1080.1,207.16,219.37,142,-6340,-7281,0,0,0,34.1346354,-118.1457420,1.22,354.47,1.33,17,1,3,0,1,0
3165661,-2187,-1522,-7022,-1161,-520,-7022,1272.1,204.13,216.34,-522,-4616,-4212,0,0,0,34.1346362,-118.1457421,1.77,2.90,1.33,17,1,3,0,1,0
3165761,-2325,-1417,-7055,-1299,-415,-7055,1363.7,197.72,209.93,244,-4317,-3484,0,0,0,34.1346370,-118.1457422,1.80,1.13,1.33,17,1,3,0,1,0
3165861,-2465,-1440,-6980,-1439,-438,-6980,1504.2,196.93,209.15,466,-5045,-3148,0,0,0,34.1346385,-118.1457422,2.58,358.97,1.33,17,1,3,0,1,0
3165961,-2582,-1370,-6967,-1556,-368,-6967,1598.9,193.31,205.52,133,-6710,-4021,0,0,0,34.1346402,-118.1457421,2.34,356.97,1.33,17,1,3,0,1,0
3166061,-2540,-1220,-6990,-1514,-218,-6990,1529.6,188.19,200.41,1103,-8616,-4680,0,0,0,34.1346423,-118.1457422,2.50,349.73,1.33,17,1,3,0,1,0
3166161,-2600,-1267,-6957,-1574,-265,-6957,1596.2,189.56,201.77,766,-4887,-5420,0,0,0,34.1346439,-118.1457421,1.96,358.14,1.33,17,1,3,0,1,0
3166261,-2440,-1195,-6990,-1414,-193,-6990,1427.1,187.77,199.99,473,-6516,-3003,0,0,0,34.1346455,-118.1457420,2.69,3.02,1.33,17,1,3,0,1,0
3166361,-2310,-1365,-7045,-1284,-363,-7045,1334.3,195.79,208.00,-116,-4911,-3720,0,0,0,34.1346470,-118.1457420,2.62,1.59,1.33,17,1,3,0,1,0
3166461,-2352,-1377,-7045,-1326,-375,-7045,1378.0,195.79,208.01,-327,-6551,-3900,0,0,0,34.1346483,-118.1457421,2.44,1.19,1.33,17,1,3,0,1,0
3166561,-2287,-1407,-7072,-1261,-405,-7072,1324.4,197.81,210.02,-181,-7608,-6720,0,0,0,34.1346493,-118.1457422,2.37,357.46,1.33,17,1,3,0,1,0
3166661,-2337,-1402,-7072,-1311,-400,-7072,1370.7,196.97,209.18,944,-6468,-7563,0,0,0,34.1346509,-118.1457424,2.52,353.28,1.33,17,1,3,0,1,0
3166761,-2347,-1505,-7055,-1321,-503,-7055,1413.5,200.85,213.06,-261,-4408,-4439,0,0,0,34.1346524,-118.1457427,2.58,352.85,1.33,17,1,3,0,1,0
3166861,-2245,-1242,-7082,-1219,-240,-7082,1242.4,191.14,203.35,562,-4602,-3175,0,0,0,34.1346538,-118.1457428,2.51,0.25,1.33,17,1,3,0,1,0
3166961,-2212,-1267,-7125,-1186,-265,-7125,1215.2,192.60,204.81,-206,-5333,-4201,0,0,0,34.1346550,-118.1457429,2.26,359.04,1.33,17,1,3,0,1,0
3167061,-2155,-1205,-7097,-1129,-203,-7097,1147.1,190.19,202.41,-133,-6616,-5335,0,0,0,34.1346558,-118.1457430,2.15,356.72,1.33,17,1,3,0,1,0
3167161,-2025,-1017,-7172,-999,-15,-7172,999.1,180.86,193.08,712,-7336,-7103,0,0,0,34.1346567,-118.1457432,1.92,347.93,1.33,17,1,3,0,1,0
3167261,-2165,-1200,-7115,-1139,-198,-7115,1156.1,189.86,202.08,-50,-3816,-3902,0,0,0,34.1346577,-118.1457432,1.67,349.30,1.33,17,1,3,0,1,0
3167361,-2020,-1287,-7195,-994,-285,-7195,1034.1,196.00,208.21,656,-5203,-4781,0,0,0,34.1346587,-118.1457433,1.78,350.13,1.33,17,1,3,0,1,0
3167461,-1957,-1412,-7087,-931,-410,-7087,1017.3,203.77,215.98,-516,-4801,-3120,0,0,0,34.1346598,-118.1457434,2.68,355.15,1.33,17,1,3,0,1,0
3167561,-2000,-1445,-7152,-974,-443,-7152,1070.0,204.46,216.67,648,-6518,-5520,0,0,0,34.1346610,-118.1457433,2.17,357.20,1.33,17,1,3,0,1,0
3167661,-2027,-1517,-7175,-1001,-515,-7175,1125.7,207.23,219.44,89,-8796,-5107,0,0,0,34.1346624,-118.1457432,2.28,354.07,1.33,17,1,3,0,1,0
3167761,-2197,-1440,-7065,-1171,-438,-7065,1250.2,200.51,212.72,-278,-4815,-6812,0,0,0,34.1346639,-118.1457432,1.93,356.09,1.33,17,1,3,0,1,0
3167861,-2100,-1402,-7147,-1074,-400,-7147,1146.1,200.43,212.64,-71,-3910,-4698,0,0,0,34.1346655,-118.1457431,2.32,357.15,1.33,17,1,3,0,1,0
3167961,-2145,-1377,-7082,-1119,-375,-7082,1180.2,198.53,210.74,994,-5098,-3382,0,0,0,34.1346666,-118.1457431,2.09,359.20,1.33,17,1,3,0,1,0
3168061,-2150,-1205,-7162,-1124,-203,-7162,1142.2,190.24,202.45,-195,-5108,-4183,0,0,0,34.1346677,-118.1457433,2.14,357.62,1.33,17,1,3,0,1,0
3168161,-2075,-1152,-7142,-1049,-150,-7142,1059.7,188.14,200.35,-94,-7203,-6465,0,0,0,34.1346689,-118.1457435,1.99,355.14,1.33,17,1,3,0,1,0
3168261,-1952,-950,-7200,-926,52,-7200,927.5,176.79,189.00,2514,-6628,-9888,0,0,0,34.1346698,-118.1457434,1.08,351.81,1.33,17,1,3,0,1,0
3168361,-2215,-1157,-7087,-1189,-155,-7087,1199.1,187.43,199.64,-304,-3232,-1979,0,0,0,34.1346705,-118.1457435,1.35,346.15,1.33,17,1,3,0,1,0
3168461,-2090,-1122,-7142,-1064,-120,-7142,1070.7,186.43,198.65,542,-4744,-4172,0,0,0,34.1346714,-118.1457437,1.60,346.82,1.33,17,1,3,0,1,0
3168561,-1987,-1340,-7157,-961,-338,-7157,1018.7,199.38,211.59,-612,-5197,-4081,0,0,0,34.1346723,-118.1457438,1.46,347.01,1.33,17,1,3,0,1,0
3168661,-2000,-1297,-7152,-974,-295,-7152,1017.7,196.85,209.07,863,-7108,-6464,0,0,0,34.1346730,-118.1457441,1.86,341.37,1.33,17,1,3,0,1,0
3168761,-2015,-1320,-7082,-989,-318,-7082,1038.9,197.82,210.04,-63,-7938,-5221,0,0,0,34.1346737,-118.1457445,2.24,334.22,1.33,17,1,3,0,1,0
3168861,-2155,-1305,-7072,-1129,-303,-7072,1169.0,195.02,207.24,-355,-4692,-6074,0,0,0,34.1346752,-118.1457445,1.97,348.57,1.33,17,1,3,0,1,0
3168961,-2145,-1445,-7045,-1119,-443,-7045,1203.5,201.60,213.81,-693,-3429,-4202,0,0,0,34.1346765,-118.1457444,1.77,3.79,1.33,17,1,3,0,1,0
3169061,-2177,-1377,-7022,-1151,-375,-7022,1210.5,198.05,210.26,1006,-4883,-3663,0,0,0,34.1346770,-118.1457442,1.41,9.93,1.33,17,1,3,0,1,0
3169161,-2170,-1330,-7027,-1144,-328,-7027,1190.1,196.00,208.21,508,-5334,-3880,0,0,0,34.1346775,-118.1457439,1.52,353.65,1.33,17,1,3,0,1,0
3169261,-2192,-1190,-7032,-1166,-188,-7032,1181.1,189.16,201.38,190,-7436,-7145,0,0,0,34.1346779,-118.1457440,1.10,0.00,1.33,17,1,3,0,1,0
3169361,-2085,-1132,-7032,-1059,-130,-7032,1066.9,187.00,199.21,466,-5859,-7697,0,0,0,34.1346785,-118.1457443,1.80,347.81,1.33,17,1,3,0,1,0
3169461,-2100,-1220,-7087,-1074,-218,-7087,1095.9,191.47,203.69,716,-5511,-2871,0,0,0,34.1346790,-118.1457446,2.18,4.07,1.33,17,1,3,0,1,0
3169561,-2037,-1335,-7115,-1011,-333,-7115,1064.4,198.23,210.45,323,-4622,-5033,0,0,0,34.1346797,-118.1457446,1.74,3.23,1.33,17,1,3,0,1,0
3169661,-2025,-1552,-7045,-999,-550,-7045,1140.4,208.84,221.05,-713,-4704,-3751,0,0,0,34.1346803,-118.1457445,1.66,5.01,1.33,17,1,3,0,1,0
3169761,-2065,-1567,-6990,-1039,-565,-6990,1182.7,208.54,220.75,583,-7109,-5807,0,0,0,34.1346808,-118.1457444,1.58,1.43,1.33,17,1,3,0,1,0
3169861,-2102,-1547,-7000,-1076,-545,-7000,1206.2,206.86,219.08,714,-8298,-6767,0,0,0,34.1346813,-118.1457448,1.68,336.56,1.33,17,1,3,0,1,0
3169961,-2155,-1640,-7000,-1129,-638,-7000,1296.8,209.47,221.69,-1220,-5246,-3926,0,0,0,34.1346818,-118.1457450,1.99,347.84,1.33,17,1,3,0,1,0
3170061,-2112,-1662,-6962,-1086,-660,-6962,1270.8,211.29,223.50,-48,-3292,-4354,0,0,0,34.1346824,-118.1457451,1.76,5.35,1.33,17,1,3,0,1,0
3170161,-2047,-1542,-7007,-1021,-540,-7007,1155.0,207.87,220.09,342,-4754,-4057,0,0,0,34.1346828,-118.1457453,1.62,359.75,1.33,17,1,3,0,1,0
3170261,-2057,-1480,-7027,-1031,-478,-7027,1136.4,204.87,217.09,-149,-5988,-5250,0,0,0,34.1346833,-118.1457455,1.86,349.66,1.33,17,1,3,0,1,0
3170361,-2102,-1485,-7032,-1076,-483,-7032,1179.4,204.17,216.39,237,-7964,-5681,0,0,0,34.1346838,-118.1457456,1.42,348.75,1.33,17,1,3,0,1,0
3170461,-2137,-1382,-6995,-1111,-380,-6995,1174.2,198.88,211.10,1269,-4750,-7020,0,0,0,34.1346847,-118.1457455,2.18,356.70,1.33,17,1,3,0,1,0
3170561,-2117,-1445,-6985,-1091,-443,-6985,1177.5,202.10,214.32,686,-6624,-3569,0,0,0,34.1346856,-118.1457455,2.72,1.68,1.33,17,1,3,0,1,0
3170661,-2192,-1557,-7012,-1166,-555,-7012,1291.3,205.45,217.67,-541,-4554,-4862,0,0,0,34.1346864,-118.1457454,3.06,3.39,1.33,17,1,3,0,1,0
3170761,-2507,-1657,-6915,-1481,-655,-6915,1619.4,203.86,216.07,-874,-6069,-3426,0,0,0,34.1346873,-118.1457449,2.32,4.05,1.33,17,1,3,0,1,0
3170861,-2680,-1682,-6795,-1654,-680,-6795,1788.3,202.35,214.56,-487,-6720,-5368,0,0,0,34.1346884,-118.1457449,1.83,4.50,1.33,17,1,3,0,1,0
3170961,-2857,-1590,-6780,-1831,-588,-6780,1923.1,197.80,210.02,906,-7523,-6108,0,0,0,34.1346890,-118.1457448,1.25,2.35,1.33,17,1,3,0,1,0
3171061,-2850,-1667,-6742,-1824,-665,-6742,1941.4,200.03,212.25,-908,-5800,-3716,0,0,0,34.1346894,-118.1457447,1.92,358.44,1.33,17,1,3,0,1,0
3171161,-2952,-1725,-6735,-1926,-723,-6735,2057.2,200.58,212.79,1097,-5806,-3270,0,0,0,34.1346901,-118.1457446,3.08,357.90,1.33,17,1,3,0,1,0
3171261,-3340,-1532,-6632,-2314,-530,-6632,2373.9,192.90,205.12,356,-5269,-2769,0,0,0,34.1346912,-118.1457446,3.06,350.60,1.33,17,1,3,0,1,0
3171361,-3430,-1557,-6552,-2404,-555,-6552,2467.2,193.00,205.22,-320,-7565,-3055,0,0,0,34.1346921,-118.1457447,2.11,347.19,1.33,17,1,3,0,1,0
3171461,-3377,-1507,-6605,-2351,-505,-6605,2404.6,192.12,204.34,1583,-7634,-4921,0,0,0,34.1346929,-118.1457446,1.60,353.46,1.33,17,1,3,0,1,0
3171561,-3252,-1460,-6682,-2226,-458,-6682,2272.6,191.63,203.84,-377,-5922,-2360,0,0,0,34.1346939,-118.1457445,1.53,359.28,1.33,17,1,3,0,1,0
3171661,-3045,-1490,-6740,-2019,-488,-6740,2077.1,193.59,205.80,206,-5629,-3579,0,0,0,34.1346951,-118.1457444,2.06,0.04,1.33,17,1,3,0,1,0
3171761,-3070,-1585,-6735,-2044,-583,-6735,2125.5,195.92,208.14,-894,-5015,-1903,0,0,0,34.1346964,-118.1457442,2.84,357.95,1.33,17,1,3,0,1,0
3171861,-3075,-1600,-6740,-2049,-598,-6740,2134.5,196.27,208.49,419,-7685,-3563,0,0,0,34.1346974,-118.1457441,1.97,358.81,1.33,17,1,3,0,1,0
3171961,-2910,-1495,-6795,-1884,-493,-6795,1947.4,194.66,206.88,323,-9989,-4450,0,0,0,34.1346984,-118.1457439,1.74,0.81,1.33,17,1,3,0,1,0
3172061,-2927,-1667,-6800,-1901,-665,-6800,2014.0,199.28,211.50,-1008,-6336,-3261,0,0,0,34.1346997,-118.1457436,2.66,1.38,1.33,17,1,3,0,1,0
3172161,-2755,-1677,-6910,-1729,-675,-6910,1856.1,201.33,213.54,189,-4550,-3717,0,0,0,34.1347008,-118.1457433,2.62,3.70,1.33,17,1,3,0,1,0
3172261,-2787,-1580,-6907,-1761,-578,-6907,1853.4,198.17,210.39,335,-5165,-3617,0,0,0,34.1347028,-118.1457427,2.57,359.08,1.33,17,1,3,0,1,0
3172361,-2925,-1522,-6882,-1899,-520,-6882,1968.9,195.31,207.53,-5,-6481,-3964,0,0,0,34.1347050,-118.1457422,2.33,352.89,1.33,17,1,3,0,1,0
3172461,-2807,-1437,-6935,-1781,-435,-6935,1833.4,193.73,205.94,-640,-8397,-3798,0,0,0,34.1347068,-118.1457419,1.90,350.07,1.33,17,1,3,0,1,0
3172561,-2475,-1335,-7045,-1449,-333,-7045,1486.8,192.94,205.16,1546,-5295,-5914,0,0,0,34.1347081,-118.1457418,2.20,349.14,1.33,17,1,3,0,1,0
3172661,-2160,-1335,-7140,-1134,-333,-7140,1181.9,196.36,208.58,1057,-6571,-2753,0,0,0,34.1347095,-118.1457417,2.15,353.42,1.33,17,1,3,0,1,0
3172761,-2140,-1455,-7167,-1114,-453,-7167,1202.6,202.13,214.34,63,-4264,-3937,0,0,0,34.1347108,-118.1457416,2.13,1.40,1.33,17,1,3,0,1,0
3172861,-2102,-1500,-7212,-1076,-498,-7212,1185.7,204.84,217.05,-162,-5952,-3387,0,0,0,34.1347121,-118.1457412,2.18,9.24,1.33,17,1,3,0,1,0
3172961,-1925,-1445,-7255,-899,-443,-7255,1002.2,206.23,218.45,717,-7609,-7413,0,0,0,34.1347132,-118.1457409,2.47,3.78,1.33,17,1,3,0,1,0
3173061,-1817,-1557,-7245,-791,-555,-7245,966.3,215.06,227.27,-209,-6052,-7617,0,0,0,34.1347143,-118.1457406,2.83,358.58,1.33,17,1,3,0,1,0
3173161,-1770,-1542,-7292,-744,-540,-7292,919.3,215.97,228.19,-868,-4578,-4412,0,0,0,34.1347161,-118.1457401,2.83,1.84,1.33,17,1,3,0,1,0
3173261,-1597,-1572,-7310,-571,-570,-7310,806.8,224.95,237.17,594,-3522,-4701,0,0,0,34.1347173,-118.1457398,2.45,2.27,1.33,17,1,3,0,1,0
3173361,-1527,-1517,-7315,-501,-515,-7315,718.5,225.79,238.01,557,-4551,-5182,0,0,0,34.1347184,-118.1457395,1.99,1.18,1.33,17,1,3,0,1,0
3173461,-1650,-1485,-7347,-624,-483,-7347,789.1,217.74,229.96,-387,-5393,-5665,0,0,0,34.1347193,-118.1457393,1.57,358.21,1.33,17,1,3,0,1,0
3173561,-1592,-1427,-7310,-566,-425,-7310,707.8,216.90,229.12,462,-7127,-6804,0,0,0,34.1347203,-118.1457392,1.66,346.94,1.33,17,1,3,0,1,0
3173661,-1695,-1377,-7325,-669,-375,-7325,766.9,209.27,221.49,1172,-3515,-6316,0,0,0,34.1347215,-118.1457392,2.74,352.02,1.33,17,1,3,0,1,0
3173761,-1695,-1500,-7385,-669,-498,-7385,834.0,216.66,228.88,106,-5797,-3601,0,0,0,34.1347224,-118.1457393,2.98,1.16,1.33,17,1,3,0,1,0
3173861,-1652,-1640,-7297,-626,-638,-7297,893.8,225.54,237.76,-94,-4010,-4314,0,0,0,34.1347235,-118.1457392,2.93,9.02,1.33,17,1,3,0,1,0
3173961,-1732,-1792,-7325,-706,-790,-7325,1059.5,228.21,240.43,335,-5847,-4756,0,0,0,34.1347245,-118.1457390,2.55,4.93,1.33,17,1,3,0,1,0
3174061,-1690,-1890,-7287,-664,-888,-7287,1108.8,233.21,245.43,-31,-6772,-7973,0,0,0,34.1347256,-118.1457390,1.12,350.39,1.33,17,1,3,0,1,0
3174161,-1875,-1827,-7152,-849,-825,-7152,1183.8,224.18,236.39,272,-4144,-7275,0,0,0,34.1347260,-118.1457392,1.39,342.88,1.33,17,1,3,0,1,0
3174261,-1812,-1890,-7245,-786,-888,-7245,1185.9,228.49,240.70,-509,-3239,-4599,0,0,0,34.1347266,-118.1457397,1.39,326.17,1.33,17,1,3,0,1,0
3174361,-1687,-1640,-7297,-661,-638,-7297,918.7,223.99,236.20,1623,-4775,-4685,0,0,0,34.1347274,-118.1457400,2.67,343.40,1.33,17,1,3,0,1,0
3174461,-1700,-1610,-7337,-674,-608,-7337,907.7,222.05,234.27,-155,-4324,-4972,0,0,0,34.1347285,-118.1457401,2.60,7.39,1.33,17,1,3,0,1,0
3174561,-1612,-1512,-7335,-586,-510,-7335,776.9,221.03,233.25,-330,-5999,-6864,0,0,0,34.1347296,-118.1457401,1.90,17.99,1.33,17,1,3,0,1,0
3174661,-1545,-1330,-7335,-519,-328,-7335,614.0,212.29,224.51,904,-5462,-8643,0,0,0,34.1347304,-118.1457399,1.37,29.76,1.33,17,1,3,0,1,0
3174761,-1715,-1355,-7325,-689,-353,-7325,774.2,207.13,219.34,37,-4267,-3802,0,0,0,34.1347309,-118.1457397,1.55,25.92,1.33,17,1,3,0,1,0
3174861,-1555,-1470,-7352,-529,-468,-7352,706.3,221.50,233.71,-597,-3793,-4199,0,0,0,34.1347315,-118.1457398,1.94,10.05,1.33,17,1,3,0,1,0
3174961,-1550,-1657,-7347,-524,-655,-7347,838.8,231.34,243.56,-359,-4175,-4212,0,0,0,34.1347324,-118.1457400,2.80,355.40,1.33,17,1,3,0,1,0
3175061,-1522,-1645,-7342,-496,-643,-7342,812.1,232.35,244.57,1376,-6564,-7117,0,0,0,34.1347335,-118.1457404,2.82,351.97,1.33,17,1,3,0,1,0
3175161,-1522,-1760,-7342,-496,-758,-7342,905.9,236.80,249.02,668,-8427,-7744,0,0,0,34.1347342,-118.1457406,2.11,358.45,1.33,17,1,3,0,1,0
3175261,-1540,-2000,-7287,-514,-998,-7287,1122.6,242.75,254.97,-2844,-3445,-4689,0,0,0,34.1347356,-118.1457406,2.31,6.19,1.33,17,1,3,0,1,0
3175361,-1500,-1922,-7310,-474,-920,-7310,1034.9,242.74,254.96,190,-2811,-5191,0,0,0,34.1347374,-118.1457406,3.61,1.49,1.33,17,1,3,0,1,0
3175461,-1545,-1937,-7320,-519,-935,-7320,1069.4,240.97,253.18,769,-4089,-3764,0,0,0,34.1347391,-118.1457408,3.80,354.35,1.33,17,1,3,0,1,0
3175561,-1490,-1880,-7270,-464,-878,-7270,993.1,242.14,254.36,-109,-5033,-5660,0,0,0,34.1347405,-118.1457409,2.77,352.40,1.33,17,1,3,0,1,0
3175661,-1362,-1807,-7320,-336,-805,-7320,872.3,247.34,259.56,-30,-7616,-7138,0,0,0,34.1347417,-118.1457409,1.25,356.10,1.33,17,1,3,0,1,0
3175761,-1490,-1780,-7310,-464,-778,-7310,905.9,239.19,251.40,1058,-2854,-8027,0,0,0,34.1347427,-118.1457410,0.77,355.74,1.33,17,1,3,0,1,0
3175861,-1527,-1977,-7227,-501,-975,-7227,1096.2,242.80,255.02,105,-5763,-1884,0,0,0,34.1347440,-118.1457410,1.29,13.85,1.33,17,1,3,0,1,0
3175961,-1432,-1995,-7315,-406,-993,-7315,1072.8,247.76,259.98,6,-3809,-5537,0,0,0,34.1347454,-118.1457409,2.13,11.54,1.33,17,1,3,0,1,0
3176061,-1457,-2112,-7287,-431,-1110,-7287,1190.7,248.78,261.00,-363,-5278,-4867,0,0,0,34.1347470,-118.1457410,2.85,1.87,1.33,17,1,3,0,1,0
3176161,-1425,-2050,-7250,-399,-1048,-7250,1121.4,249.16,261.37,538,-6542,-7851,0,0,0,34.1347486,-118.1457412,2.57,358.84,1.33,17,1,3,0,1,0
3176261,-1462,-1927,-7297,-436,-925,-7297,1022.6,244.76,256.98,-725,-4486,-9040,0,0,0,34.1347500,-118.1457414,1.42,355.34,1.35,16,1,3,0,1,0
3176361,-1512,-2010,-7265,-486,-1008,-7265,1119.0,244.26,256.48,-1769,-3364,-4097,0,0,0,34.1347508,-118.1457416,2.13,357.76,1.33,17,1,3,0,1,0
3176461,-1550,-1920,-7287,-524,-918,-7287,1057.0,240.28,252.50,988,-3696,-4034,0,0,0,34.1347518,-118.1457418,2.32,3.80,1.33,17,1,3,0,1,0
3176561,-1565,-1802,-7342,-539,-800,-7342,964.6,236.03,248.25,99,-4789,-4413,0,0,0,34.1347522,-118.1457418,1.53,4.78,1.33,17,1,3,0,1,0
3176661,-1457,-1792,-7330,-431,-790,-7330,899.9,241.38,253.60,-497,-5684,-7060,0,0,0,34.1347527,-118.1457419,1.27,1.75,1.33,17,1,3,0,1,0
3176761,-1335,-1640,-7292,-309,-638,-7292,708.9,244.16,256.37,151,-6475,-8001,0,0,0,34.1347535,-118.1457422,0.99,1.50,1.33,17,1,3,0,1,0
3176861,-1650,-1620,-7315,-624,-618,-7315,878.2,224.72,236.94,443,-2331,-5959,0,0,0,34.1347544,-118.1457424,2.02,359.02,1.33,17,1,3,0,1,0
3176961,-1597,-1712,-7347,-571,-710,-7347,911.1,231.19,243.41,568,-6170,-4363,0,0,0,34.1347557,-118.1457426,1.97,1.03,1.33,17,1,3,0,1,0
3177061,-1845,-1647,-7305,-819,-645,-7305,1042.5,218.22,230.44,-294,-4353,-4529,0,0,0,34.1347566,-118.1457428,1.26,1.41,1.33,17,1,3,0,1,0
3177161,-1977,-1870,-7240,-951,-868,-7240,1287.6,222.39,234.60,-86,-5853,-3961,0,0,0,34.1347576,-118.1457430,1.41,4.40,1.33,17,1,3,0,1,0
3177262,-2025,-1932,-7237,-999,-930,-7237,1364.9,222.95,235.17,-623,-7144,-6689,0,0,0,34.1347586,-118.1457433,1.58,0.23,1.33,17,1,3,0,1,0
3177361,-2052,-1900,-7190,-1026,-898,-7190,1363.5,221.19,233.41,-75,-5106,-8170,0,0,0,34.1347586,-118.1457433,1.58,0.23,1.33,17,1,3,0,1,0
3177461,-2047,-1957,-7200,-1021,-955,-7200,1398.0,223.09,235.30,-1063,-3857,-3914,0,0,0,34.1347604,-118.1457438,2.04,0.53,1.33,17,1,3,0,1,0
3177561,-1962,-1905,-7287,-936,-903,-7287,1300.6,223.97,236.19,1280,-4686,-3769,0,0,0,34.1347616,-118.1457441,2.37,356.00,1.33,17,1,3,0,1,0
3177661,-1907,-1745,-7315,-881,-743,-7315,1152.5,220.14,232.36,-92,-4598,-4637,0,0,0,34.1347628,-118.1457445,2.37,354.28,1.33,17,1,3,0,1,0
3177761,-1870,-1750,-7302,-844,-748,-7302,1127.8,221.55,233.77,-850,-6310,-5621,0,0,0,34.1347638,-118.1457447,1.54,3.45,1.33,17,1,3,0,1,0
3177861,-1710,-1652,-7375,-684,-650,-7375,943.6,223.54,235.76,545,-6545,-8078,0,0,0,34.1347648,-118.1457450,1.32,351.23,1.33,17,1,3,0,1,0
3177961,-1902,-1630,-7380,-876,-628,-7380,1077.8,215.64,227.85,791,-3285,-4969,0,0,0,34.1347662,-118.1457457,2.54,337.85,1.33,17,1,3,0,1,0
3178061,-1732,-1657,-7427,-706,-655,-7427,963.0,222.85,235.07,94,-5405,-4321,0,0,0,34.1347677,-118.1457462,3.19,349.47,1.33,17,1,3,0,1,0
3178161,-1652,-1870,-7395,-626,-868,-7395,1070.2,234.20,246.42,-804,-4384,-4214,0,0,0,34.1347692,-118.1457468,3.81,359.62,1.33,17,1,3,0,1,0
3178261,-1902,-1942,-7357,-876,-940,-7357,1284.9,227.02,239.23,-163,-6357,-5048,0,0,0,34.1347704,-118.1457469,2.73,0.88,1.33,17,1,3,0,1,0
3178361,-2005,-1937,-7335,-979,-935,-7335,1353.8,223.68,235.90,-253,-8453,-5743,0,0,0,34.1347716,-118.1457471,1.99,3.05,1.33,17,1,3,0,1,0
3178461,-2100,-1827,-7277,-1074,-825,-7277,1354.3,217.53,229.75,-488,-4764,-5913,0,0,0,34.1347731,-118.1457472,1.10,0.25,1.33,17,1,3,0,1,0
3178561,-2127,-1870,-7320,-1101,-868,-7320,1402.0,218.25,230.47,-278,-3492,-4823,0,0,0,34.1347742,-118.1457471,2.00,357.21,1.33,17,1,3,0,1,0
3178661,-2132,-1635,-7325,-1106,-633,-7325,1274.3,209.78,222.00,969,-4978,-4126,0,0,0,34.1347756,-118.1457472,2.89,357.63,1.33,17,1,3,0,1,0
3178761,-2287,-1500,-7297,-1261,-498,-7297,1355.8,201.55,213.77,-290,-5304,-3959,0,0,0,34.1347776,-118.1457474,2.87,356.97,1.33,17,1,3,0,1,0
3178861,-2332,-1480,-7245,-1306,-478,-7245,1390.7,200.10,212.32,-243,-8140,-5416,0,0,0,34.1347794,-118.1457476,2.90,359.29,1.33,17,1,3,0,1,0
3178961,-2235,-1407,-7352,-1209,-405,-7352,1275.0,198.52,210.74,2022,-6691,-8397,0,0,0,34.1347806,-118.1457478,1.76,353.93,1.33,17,1,3,0,1,0
3179061,-2357,-1402,-7310,-1331,-400,-7310,1389.8,196.73,208.94,226,-4411,-3135,0,0,0,34.1347813,-118.1457477,1.31,358.32,1.33,17,1,3,0,1,0
3179161,-2250,-1485,-7310,-1224,-483,-7310,1315.9,201.53,213.75,169,-5104,-4849,0,0,0,34.1347833,-118.1457471,2.19,9.51,1.33,17,1,3,0,1,0
3179261,-2327,-1677,-7272,-1301,-675,-7272,1465.7,207.42,219.64,-644,-5331,-3323,0,0,0,34.1347843,-118.1457464,2.88,9.42,1.33,17,1,3,0,1,0
3179361,-2370,-1647,-7250,-1344,-645,-7250,1490.8,205.64,217.85,313,-7385,-5595,0,0,0,34.1347850,-118.1457457,2.56,10.40,1.33,17,1,3,0,1,0
3179461,-2325,-1505,-7212,-1299,-503,-7212,1393.0,201.17,213.38,235,-8330,-7139,0,0,0,34.1347859,-118.1457453,3.15,0.08,1.33,17,1,3,0,1,0
3179561,-2417,-1647,-7200,-1391,-645,-7200,1533.3,204.88,217.09,-1542,-4538,-4272,0,0,0,34.1347869,-118.1457449,2.96,4.22,1.33,17,1,3,0,1,0
3179661,-2375,-1547,-7152,-1349,-545,-7152,1454.9,202.00,214.22,433,-3658,-3550,0,0,0,34.1347877,-118.1457443,2.02,8.18,1.33,17,1,3,0,1,0
3179761,-2320,-1470,-7180,-1294,-468,-7180,1376.0,199.88,212.10,960,-5352,-3712,0,0,0,34.1347882,-118.1457439,1.43,358.28,1.33,17,1,3,0,1,0
3179861,-2287,-1542,-7180,-1261,-540,-7180,1371.8,203.18,215.40,57,-5629,-4667,0,0,0,34.1347888,-118.1457435,2.62,348.78,1.33,17,1,3,0,1,0
3179961,-2182,-1485,-7152,-1156,-483,-7152,1252.8,202.68,214.89,-276,-7957,-5794,0,0,0,34.1347899,-118.1457430,3.63,357.11,1.33,17,1,3,0,1,0
3180062,-2150,-1370,-7195,-1124,-368,-7195,1182.7,198.13,210.34,1101,-4597,-8371,0,0,0,34.1347911,-118.1457426,3.32,359.32,1.33,17,1,3,0,1,0
3180161,-2150,-1527,-7152,-1124,-525,-7152,1240.6,205.04,217.25,-82,-6332,-2061,0,0,0,34.1347922,-118.1457421,1.97,5.04,1.33,17,1,3,0,1,0
3180261,-2160,-1657,-7102,-1134,-655,-7102,1309.6,210.01,222.23,-3,-4194,-4588,0,0,0,34.1347933,-118.1457415,2.12,0.67,1.33,17,1,3,0,1,0
3180361,-2192,-1855,-7055,-1166,-853,-7055,1444.7,216.19,228.40,-112,-5664,-3588,0,0,0,34.1347943,-118.1457410,1.85,358.09,1.33,17,1,3,0,1,0
3180461,-2107,-1860,-7065,-1081,-858,-7065,1380.1,218.44,230.66,212,-7141,-6848,0,0,0,34.1347954,-118.1457405,1.95,352.87,1.33,17,1,3,0,1,0
3180561,-2150,-1875,-7045,-1124,-873,-7045,1423.2,217.84,230.05,698,-6281,-7948,0,0,0,34.1347968,-118.1457400,2.87,355.33,1.33,17,1,3,0,1,0
3180661,-2137,-2005,-6972,-1111,-1003,-6972,1496.8,222.08,234.29,-1452,-4316,-3214,0,0,0,34.1347981,-118.1457394,2.93,5.06,1.33,17,1,3,0,1,0
3180761,-2005,-1905,-7082,-979,-903,-7082,1331.9,222.69,234.90,925,-4469,-4213,0,0,0,34.1347997,-118.1457387,3.50,7.04,1.33,17,1,3,0,1,0
3180861,-2010,-1880,-7072,-984,-878,-7072,1318.8,221.74,233.96,61,-4901,-3618,0,0,0,34.1348008,-118.1457383,2.68,0.30,1.33,17,1,3,0,1,0
3180961,-1870,-1870,-7092,-844,-868,-7092,1210.7,225.80,238.02,-677,-5882,-5433,0,0,0,34.1348016,-118.1457378,1.68,359.05,1.33,17,1,3,0,1,0
3181061,-1775,-1760,-7200,-749,-758,-7200,1065.6,225.34,237.56,707,-7422,-7603,0,0,0,34.1348021,-118.1457373,1.81,0.86,1.33,17,1,3,0,1,0
3181161,-1957,-1787,-7102,-931,-785,-7102,1217.8,220.14,232.35,284,-3436,-5213,0,0,0,34.1348031,-118.1457369,3.17,359.49,1.33,17,1,3,0,1,0
3181261,-1845,-1827,-7152,-819,-825,-7152,1162.5,225.21,237.43,-192,-5778,-3118,0,0,0,34.1348038,-118.1457367,3.26,356.69,1.33,17,1,3,0,1,0
3181361,-1807,-1982,-7167,-781,-980,-7167,1253.1,231.45,243.66,18,-4553,-4770,0,0,0,34.1348047,-118.1457365,2.45,358.05,1.33,17,1,3,0,1,0
3181461,-1950,-2025,-7072,-924,-1023,-7072,1378.5,227.91,240.13,-215,-6101,-4435,0,0,0,34.1348054,-118.1457363,2.23,358.06,1.33,17,1,3,0,1,0
3181561,-2010,-2030,-7115,-984,-1028,-7115,1423.0,226.25,238.47,65,-7634,-5808,0,0,0,34.1348060,-118.1457363,2.00,357.83,1.33,17,1,3,0,1,0
3181661,-2150,-1915,-7167,-1124,-913,-7167,1448.1,219.09,231.30,-785,-5423,-7430,0,0,0,34.1348067,-118.1457362,2.65,6.83,1.33,17,1,3,0,1,0
3181761,-2262,-1952,-7087,-1236,-950,-7087,1558.9,217.55,229.76,-1268,-4013,-4574,0,0,0,34.1348077,-118.1457359,3.41,13.51,1.33,17,1,3,0,1,0
3181861,-2300,-1905,-7060,-1274,-903,-7060,1561.6,215.33,227.54,734,-4847,-3130,0,0,0,34.1348088,-118.1457355,3.00,14.59,1.33,17,1,3,0,1,0
3181961,-2470,-1792,-7040,-1444,-790,-7040,1646.0,208.68,220.90,211,-4879,-3694,0,0,0,34.1348095,-118.1457353,2.19,5.64,1.33,17,1,3,0,1,0
3182061,-2507,-1702,-7180,-1481,-700,-7180,1638.1,205.30,217.51,-571,-7232,-5126,0,0,0,34.1348103,-118.1457352,2.03,356.55,1.33,17,1,3,0,1,0
3182161,-2520,-1645,-7120,-1494,-643,-7120,1626.5,203.29,215.50,1295,-7606,-6783,0,0,0,34.1348111,-118.1457351,2.02,341.90,1.33,17,1,3,0,1,0
3182261,-2582,-1620,-7130,-1556,-618,-7130,1674.2,201.66,213.88,-521,-4328,-2230,0,0,0,34.1348120,-118.1457351,1.89,349.16,1.33,17,1,3,0,1,0
3182361,-2477,-1562,-7147,-1451,-560,-7147,1555.3,201.10,213.32,367,-5174,-4736,0,0,0,34.1348126,-118.1457348,1.60,2.49,1.33,17,1,3,0,1,0
3182461,-2535,-1822,-7110,-1509,-820,-7110,1717.4,208.52,220.74,-744,-4848,-2691,0,0,0,34.1348132,-118.1457345,2.31,3.78,1.33,17,1,3,0,1,0
3182561,-2550,-1832,-7087,-1524,-830,-7087,1735.4,208.57,220.79,344,-7559,-4384,0,0,0,34.1348139,-118.1457342,2.85,5.28,1.33,17,1,3,0,1,0
3182661,-2642,-1760,-7050,-1616,-758,-7050,1784.9,205.13,217.35,1352,-9765,-6003,0,0,0,34.1348148,-118.1457341,2.59,4.16,1.33,17,1,3,0,1,0
3182761,-2675,-1852,-7070,-1649,-850,-7070,1855.2,207.27,219.49,-1884,-5715,-4313,0,0,0,34.1348151,-118.1457339,1.57,355.96,1.33,17,1,3,0,1,0
3182861,-2665,-1832,-7045,-1639,-830,-7045,1837.2,206.86,219.07,-531,-3559,-4205,0,0,0,34.1348156,-118.1457339,1.05,343.68,1.33,17,1,3,0,1,0
3182961,-2745,-1827,-7032,-1719,-825,-7032,1906.7,205.64,217.85,1080,-5668,-3217,0,0,0,34.1348163,-118.1457339,1.25,343.29,1.33,17,1,3,0,1,0
3183061,-2927,-1682,-6952,-1901,-680,-6952,2019.0,199.68,211.90,333,-6357,-3511,0,0,0,34.1348168,-118.1457338,1.11,346.27,1.33,17,1,3,0,1,0
3183161,-2925,-1667,-6957,-1899,-665,-6957,2012.1,199.30,211.52,247,-9068,-5195,0,0,0,34.1348174,-118.1457338,1.57,353.14,1.33,17,1,3,0,1,0
3183261,-2887,-1600,-6995,-1861,-598,-6995,1954.7,197.81,210.03,2553,-7134,-6591,0,0,0,34.1348179,-118.1457337,1.92,3.48,1.33,17,1,3,0,1,0
3183361,-2835,-1495,-7000,-1809,-493,-7000,1875.0,195.24,207.46,-243,-5377,-1837,0,0,0,34.1348186,-118.1457336,2.15,7.00,1.33,17,1,3,0,1,0
3183461,-2745,-1557,-7012,-1719,-555,-7012,1806.4,197.89,210.11,655,-4923,-4261,0,0,0,34.1348193,-118.1457335,1.47,2.38,1.33,17,1,3,0,1,0
3183561,-2975,-1707,-6975,-1949,-705,-6975,2072.6,199.89,212.10,-880,-5068,-1948,0,0,0,34.1348200,-118.1457336,1.96,3.98,1.33,17,1,3,0,1,0
3183661,-2862,-1745,-6967,-1836,-743,-6967,1980.6,202.03,214.25,336,-8363,-4699,0,0,0,34.1348204,-118.1457330,2.10,4.96,1.33,17,1,3,0,1,0
3183761,-2825,-1702,-7012,-1799,-700,-7012,1930.4,201.26,213.48,719,-9147,-6362,0,0,0,34.1348211,-118.1457331,1.65,355.67,1.33,17,1,3,0,1,0
3183861,-2887,-1782,-6972,-1861,-780,-6972,2017.9,202.74,214.96,-1251,-5855,-2950,0,0,0,34.1348217,-118.1457331,0.59,350.31,1.33,17,1,3,0,1,0
3183961,-2745,-1915,-6995,-1719,-913,-6995,1946.4,207.97,220.19,-52,-3949,-3290,0,0,0,34.1348222,-118.1457330,0.12,354.30,1.33,17,1,3,0,1,0
3184061,-2732,-1782,-7040,-1706,-780,-7040,1875.9,204.57,216.79,250,-4986,-2785,0,0,0,34.1348230,-118.1457330,2.91,5.96,1.33,17,1,3,0,1,0
3184161,-2707,-1740,-7050,-1681,-738,-7050,1835.9,203.70,215.92,-441,-6884,-4370,0,0,0,34.1348236,-118.1457326,1.08,18.26,1.33,17,1,3,0,1,0
3184261,-2540,-1662,-7032,-1514,-660,-7032,1651.6,203.55,215.77,-364,-8830,-5528,0,0,0,34.1348242,-118.1457326,1.95,20.74,1.33,17,1,3,0,1,0
3184361,-2680,-1667,-7040,-1654,-665,-7040,1782.7,201.90,214.12,660,-4531,-6300,0,0,0,34.1348248,-118.1457326,1.78,20.03,1.33,17,1,3,0,1,0
3184461,-2652,-1720,-7082,-1626,-718,-7082,1777.5,203.83,216.04,555,-7340,-1898,0,0,0,34.1348256,-118.1457326,2.09,17.31,1.33,17,1,3,0,1,0
3184561,-2637,-1852,-6985,-1611,-850,-6985,1821.5,207.82,220.03,72,-4566,-3894,0,0,0,34.1348265,-118.1457326,2.21,3.52,1.33,17,1,3,0,1,0
3184661,-2662,-1922,-6887,-1636,-920,-6887,1876.9,209.35,221.57,-400,-5909,-2794,0,0,0,34.1348274,-118.1457328,2.21,355.83,1.33,17,1,3,0,1,0
3184761,-2577,-1990,-6947,-1551,-988,-6947,1839.0,212.50,224.71,-183,-7914,-6112,0,0,0,34.1348280,-118.1457331,1.84,348.33,1.33,17,1,3,0,1,0
3184861,-2525,-2030,-7005,-1499,-1028,-7005,1817.6,214.44,226.66,-212,-6960,-7486,0,0,0,34.1348287,-118.1457331,2.11,354.84,1.33,17,1,3,0,1,0
3184961,-2632,-2082,-6930,-1606,-1080,-6930,1935.4,213.92,226.14,-2102,-4797,-2618,0,0,0,34.1348294,-118.1457331,1.97,7.55,1.33,17,1,3,0,1,0
3185061,-2552,-2150,-6985,-1526,-1148,-6985,1909.6,216.95,229.17,612,-4512,-3959,0,0,0,34.1348300,-118.1457330,1.32,5.30,1.33,17,1,3,0,1,0
3185161,-2590,-2035,-6902,-1564,-1033,-6902,1874.3,213.44,225.66,21,-5177,-3401,0,0,0,34.1348296,-118.1457331,0.99,351.59,1.33,17,1,3,0,1,0
3185261,-2615,-1885,-6962,-1589,-883,-6962,1817.9,209.06,221.28,-260,-6805,-4248,0,0,0,34.1348298,-118.1457334,1.52,337.30,1.33,17,1,3,0,1,0
3185361,-2590,-1812,-6975,-1564,-810,-6975,1761.3,207.38,219.60,58,-8452,-5071,0,0,0,34.1348302,-118.1457335,0.55,334.69,1.33,17,1,3,0,1,0
3185461,-2625,-1817,-6980,-1599,-815,-6980,1794.7,207.01,219.22,320,-4066,-5736,0,0,0,34.1348305,-118.1457336,0.49,337.27,1.33,17,1,3,0,1,0
3185561,-2525,-1932,-6985,-1499,-930,-6985,1764.1,211.82,224.03,355,-6632,-2690,0,0,0,34.1348309,-118.1457334,1.54,353.81,1.33,17,1,3,0,1,0
3185661,-2432,-2160,-6967,-1406,-1158,-6967,1821.5,219.48,231.69,-266,-4706,-3670,0,0,0,34.1348314,-118.1457334,1.54,356.65,1.33,17,1,3,0,1,0
3185761,-2450,-2175,-6952,-1424,-1173,-6952,1844.9,219.48,231.70,-967,-6391,-3762,0,0,0,34.1348320,-118.1457333,1.75,356.04,1.33,17,1,3,0,1,0
3185861,-2465,-2195,-6957,-1439,-1193,-6957,1869.2,219.66,231.88,-425,-7611,-6533,0,0,0,34.1348326,-118.1457332,1.36,354.06,1.33,17,1,3,0,1,0
3185961,-2577,-2117,-6907,-1551,-1115,-6907,1910.2,215.71,227.93,-166,-5832,-7052,0,0,0,34.1348332,-118.1457332,1.68,351.36,1.33,17,1,3,0,1,0
3186061,-2465,-2130,-6915,-1439,-1128,-6915,1828.4,218.09,230.31,-1244,-5241,-4592,0,0,0,34.1348341,-118.1457332,2.53,355.15,1.33,17,1,3,0,1,0
3186161,-2365,-2040,-6967,-1339,-1038,-6967,1694.2,217.78,230.00,941,-4690,-3692,0,0,0,34.1348350,-118.1457331,2.58,350.84,1.33,17,1,3,0,1,0
3186261,-2460,-1937,-6925,-1434,-935,-6925,1711.9,213.11,225.32,-100,-4928,-3122,0,0,0,34.1348355,-118.1457331,2.10,351.08,1.33,17,1,3,0,1,0
3186361,-2487,-1880,-7012,-1461,-878,-7012,1704.5,211.00,223.22,-560,-6770,-5406,0,0,0,34.1348362,-118.1457331,2.46,353.50,1.33,17,1,3,0,1,0
3186461,-2370,-1780,-7027,-1344,-778,-7027,1552.9,210.07,222.28,863,-7521,-6620,0,0,0,34.1348369,-118.1457331,2.62,351.57,1.33,17,1,3,0,1,0
3186561,-2507,-1740,-6990,-1481,-738,-6990,1654.7,206.49,218.70,-167,-4063,-4349,0,0,0,34.1348378,-118.1457333,2.65,0.34,1.33,17,1,3,0,1,0
3186661,-2460,-1692,-7037,-1434,-690,-7037,1591.4,205.70,217.91,313,-5339,-3709,0,0,0,34.1348384,-118.1457332,1.30,358.01,1.33,17,1,3,0,1,0
3186761,-2465,-1817,-6990,-1439,-815,-6990,1653.8,209.53,221.74,-428,-5009,-2460,0,0,0,34.1348394,-118.1457332,1.30,3.40,1.33,17,1,3,0,1,0
3186861,-2507,-1865,-6990,-1481,-863,-6990,1714.1,210.23,222.45,-296,-7784,-4314,0,0,0,34.1348402,-118.1457332,1.04,8.16,1.33,17,1,3,0,1,0
3186961,-2400,-1760,-7017,-1374,-758,-7017,1569.2,208.88,221.10,1779,-9111,-8554,0,0,0,34.1348410,-118.1457331,2.14,14.14,1.33,17,1,3,0,1,0
3187061,-2465,-1915,-7000,-1439,-913,-7000,1704.2,212.39,224.61,-2538,-5781,-3151,0,0,0,34.1348420,-118.1457332,2.60,12.45,1.33,17,1,3,0,1,0
3187161,-2315,-1910,-7037,-1289,-908,-7037,1576.7,215.16,227.38,273,-3341,-4157,0,0,0,34.1348432,-118.1457332,2.80,5.44,1.33,17,1,3,0,1,0
3187261,-2365,-1860,-7032,-1339,-858,-7032,1590.3,212.65,224.87,398,-4913,-3373,0,0,0,34.1348445,-118.1457334,2.36,354.96,1.33,17,1,3,0,1,0
3187361,-2380,-1932,-7007,-1354,-930,-7007,1642.6,214.48,226.70,-127,-6140,-5022,0,0,0,34.1348458,-118.1457334,1.76,348.77,1.33,17,1,3,0,1,0
3187461,-2385,-1895,-7027,-1359,-893,-7027,1626.1,213.31,225.53,-39,-8878,-5372,0,0,0,34.1348461,-118.1457333,0.74,345.95,1.33,17,1,3,0,1,0
3187561,-2365,-1895,-6995,-1339,-893,-6995,1609.5,213.70,225.92,-815,-4628,-5048,0,0,0,34.1348464,-118.1457331,0.29,0.00,1.33,17,1,3,0,1,0
3187661,-2390,-1740,-7027,-1364,-738,-7027,1550.9,208.42,220.63,247,-6719,-3976,0,0,0,34.1348480,-118.1457330,1.45,4.65,1.33,17,1,3,0,1,0
3187761,-2482,-1802,-6940,-1456,-800,-6940,1661.3,208.79,221.00,-458,-4387,-2915,0,0,0,34.1348511,-118.1457331,3.01,0.35,1.33,17,1,3,0,1,0
3187861,-2507,-1855,-6985,-1481,-853,-6985,1709.1,209.94,222.16,-447,-6439,-3725,0,0,0,34.1348528,-118.1457331,3.85,5.74,1.33,17,1,3,0,1,0
3187961,-2512,-1952,-6975,-1486,-950,-6975,1763.7,212.59,224.81,-236,-7900,-6489,0,0,0,34.1348561,-118.1457335,3.15,354.04,1.33,17,1,3,0,1,0
3188061,-2577,-1962,-6925,-1551,-960,-6925,1824.1,211.76,223.97,-768,-5844,-6777,0,0,0,34.1348589,-118.1457338,2.60,350.10,1.33,17,1,3,0,1,0
3188161,-2545,-2035,-6875,-1519,-1033,-6875,1837.0,214.22,226.43,-1117,-4289,-4363,0,0,0,34.1348610,-118.1457338,2.45,353.55,1.33,17,1,3,0,1,0
3188261,-2582,-1880,-6920,-1556,-878,-6920,1786.6,209.43,221.65,1361,-4910,-2820,0,0,0,34.1348637,-118.1457340,2.75,357.70,1.33,17,1,3,0,1,0
3188361,-2552,-1842,-6967,-1526,-840,-6967,1741.9,208.83,221.05,-366,-4838,-3454,0,0,0,34.1348637,-118.1457340,2.75,357.70,1.33,17,1,3,0,1,0
3188461,-2440,-1697,-7045,-1414,-695,-7045,1575.6,206.17,218.39,-72,-8168,-6348,0,0,0,34.1348664,-118.1457340,1.81,3.84,1.33,17,1,3,0,1,0
3188561,-2385,-1692,-7050,-1359,-690,-7050,1524.1,206.92,219.13,1074,-6599,-7752,0,0,0,34.1348670,-118.1457343,0.47,0.00,1.33,17,1,3,0,1,0
3188661,-2422,-1740,-7032,-1396,-738,-7032,1579.1,207.86,220.08,342,-5440,-2262,0,0,0,34.1348679,-118.1457344,0.25,0.00,1.33,17,1,3,0,1,0
3188761,-2287,-1765,-7102,-1261,-763,-7102,1473.9,211.18,223.39,329,-4121,-4524,0,0,0,34.1348692,-118.1457345,5.16,356.28,1.33,17,1,3,0,1,0
3188861,-2262,-1947,-7027,-1236,-945,-7027,1555.9,217.40,229.62,-963,-5252,-3407,0,0,0,34.1348704,-118.1457345,6.34,357.62,1.33,17,1,3,0,1,0
3188961,-2257,-1910,-7065,-1231,-908,-7065,1529.6,216.41,228.63,969,-7865,-5961,0,0,0,34.1348711,-118.1457347,1.94,4.90,1.33,17,1,3,0,1,0
3189061,-2332,-1890,-7005,-1306,-888,-7005,1579.3,214.21,226.43,786,-8084,-6700,0,0,0,34.1348723,-118.1457349,1.36,352.08,1.33,17,1,3,0,1,0
3189161,-2407,-1972,-6952,-1381,-970,-6952,1687.6,215.08,227.30,-1727,-5358,-3647,0,0,0,34.1348740,-118.1457351,1.57,13.85,1.33,17,1,3,0,1,0
3189261,-2300,-1842,-7045,-1274,-840,-7045,1526.0,213.40,225.61,214,-3635,-3747,0,0,0,34.1348753,-118.1457351,2.58,7.16,1.33,17,1,3,0,1,0
3189361,-2310,-1715,-7130,-1284,-713,-7130,1468.7,209.04,221.26,566,-5003,-3629,0,0,0,34.1348766,-118.1457351,2.73,10.35,1.33,17,1,3,0,1,0
3189461,-2362,-1532,-7065,-1336,-530,-7065,1437.3,201.64,213.85,-40,-6061,-4405,0,0,0,34.1348779,-118.1457352,2.07,8.02,1.33,17,1,3,0,1,0
3189561,-2277,-1490,-7110,-1251,-488,-7110,1342.8,201.31,213.53,-661,-8692,-5174,0,0,0,34.1348794,-118.1457352,1.33,359.25,1.33,17,1,3,0,1,0
3189661,-2282,-1422,-7060,-1256,-420,-7060,1324.4,198.49,210.71,809,-4842,-6932,0,0,0,34.1348810,-118.1457353,2.26,339.99,1.33,17,1,3,0,1,0
3189761,-2212,-1455,-7142,-1186,-453,-7142,1269.6,200.90,213.12,784,-6543,-2616,0,0,0,34.1348827,-118.1457354,3.28,342.14,1.33,17,1,3,0,1,0
3189861,-2145,-1600,-7167,-1119,-598,-7167,1268.8,208.12,220.34,477,-4210,-3894,0,0,0,34.1348846,-118.1457355,3.65,352.58,1.33,17,1,3,0,1,0
3189961,-2140,-1725,-7167,-1114,-723,-7167,1328.1,212.98,225.20,-282,-5736,-4031,0,0,0,34.1348860,-118.1457355,2.76,1.94,1.33,17,1,3,0,1,0
3190061,-2107,-1792,-7092,-1081,-790,-7092,1338.9,216.16,228.38,782,-8212,-7150,0,0,0,34.1348873,-118.1457355,2.38,7.51,1.33,17,1,3,0,1,0
3190161,-2132,-1760,-7125,-1106,-758,-7125,1340.8,214.42,226.64,-176,-5893,-7707,0,0,0,34.1348886,-118.1457353,1.93,13.09,1.33,17,1,3,0,1,0
3190262,-2202,-1735,-7140,-1176,-733,-7140,1385.7,211.94,224.15,-1456,-4750,-3216,0,0,0,34.1348900,-118.1457352,2.79,7.07,1.33,17,1,3,0,1,0
3190361,-2025,-1662,-7180,-999,-660,-7180,1197.3,213.45,225.67,670,-4091,-4071,0,0,0,34.1348916,-118.1457352,3.30,5.00,1.33,17,1,3,0,1,0
3190461,-2090,-1657,-7205,-1064,-655,-7205,1249.4,211.62,223.83,-10,-4925,-3834,0,0,0,34.1348933,-118.1457351,3.22,0.85,1.33,17,1,3,0,1,0
3190561,-2085,-1580,-7200,-1059,-578,-7200,1206.5,208.63,220.84,-246,-6457,-5356,0,0,0,34.1348947,-118.1457349,2.24,0.10,1.33,17,1,3,0,1,0
3190661,-2137,-1422,-7200,-1111,-420,-7200,1187.7,200.71,212.92,762,-8034,-5474,0,0,0,34.1348959,-118.1457348,2.03,357.95,1.33,17,1,3,0,1,0
3190761,-2245,-1377,-7212,-1219,-375,-7212,1275.4,197.10,209.32,221,-3585,-5567,0,0,0,34.1348964,-118.1457344,1.45,356.93,1.33,17,1,3,0,1,0
3190861,-2140,-1360,-7167,-1114,-358,-7167,1170.1,197.82,210.03,654,-6447,-3478,0,0,0,34.1348972,-118.1457341,1.98,2.58,1.33,17,1,3,0,1,0
3190961,-2187,-1590,-7147,-1161,-588,-7147,1301.4,206.86,219.08,-112,-4317,-3087,0,0,0,34.1348986,-118.1457341,2.75,2.47,1.33,17,1,3,0,1,0
3191061,-2262,-1672,-7195,-1236,-670,-7195,1405.9,208.46,220.68,-23,-6443,-4081,0,0,0,34.1348997,-118.1457340,3.54,355.71,1.33,17,1,3,0,1,0
3191161,-2272,-1822,-7162,-1246,-820,-7162,1491.6,213.35,225.57,-65,-8024,-6351,0,0,0,34.1349005,-118.1457339,2.99,351.00,1.33,17,1,3,0,1,0
3191261,-2282,-1832,-7140,-1256,-830,-7140,1505.5,213.46,225.67,-35,-5346,-7603,0,0,0,34.1349016,-118.1457338,1.70,2.52,1.33,17,1,3,0,1,0
3191361,-2295,-1910,-7110,-1269,-908,-7110,1560.4,215.58,227.80,-370,-4221,-3562,0,0,0,34.1349028,-118.1457338,1.75,359.88,1.33,17,1,3,0,1,0
3191461,-2230,-1802,-7222,-1204,-800,-7222,1445.6,213.60,225.82,1334,-5189,-3665,0,0,0,34.1349041,-118.1457339,2.25,354.51,1.33,17,1,3,0,1,0
3191561,-2215,-1712,-7205,-1189,-710,-7205,1384.9,210.84,223.06,283,-5339,-4064,0,0,0,34.1349054,-118.1457341,2.28,352.33,1.33,17,1,3,0,1,0
3191661,-2187,-1615,-7245,-1161,-613,-7245,1312.9,207.83,220.05,-58,-6689,-5635,0,0,0,34.1349066,-118.1457343,2.10,348.06,1.33,17,1,3,0,1,0
3191761,-2100,-1365,-7237,-1074,-363,-7237,1133.7,198.67,210.89,1180,-6872,-7685,0,0,0,34.1349076,-118.1457345,1.43,347.96,1.33,17,1,3,0,1,0
3191861,-2170,-1360,-7282,-1144,-358,-7282,1198.7,197.38,209.59,-177,-4532,-3595,0,0,0,34.1349084,-118.1457346,1.04,344.90,1.33,17,1,3,0,1,0
3191961,-2070,-1422,-7232,-1044,-420,-7232,1125.3,201.91,214.13,459,-4465,-4360,0,0,0,34.1349095,-118.1457348,1.33,347.15,1.33,17,1,3,0,1,0
3192061,-2182,-1567,-7255,-1156,-565,-7255,1286.7,206.05,218.26,-400,-4639,-3111,0,0,0,34.1349107,-118.1457350,1.41,348.80,1.33,17,1,3,0,1,0
3192161,-2165,-1567,-7207,-1139,-565,-7207,1271.4,206.38,218.60,741,-7397,-5237,0,0,0,34.1349117,-118.1457352,1.27,355.07,1.33,17,1,3,0,1,0
3192262,-2202,-1672,-7167,-1176,-670,-7167,1353.5,209.67,221.89,-84,-9257,-4861,0,0,0,34.1349127,-118.1457352,1.58,2.51,1.33,17,1,3,0,1,0
3192361,-2417,-1787,-7147,-1391,-785,-7147,1597.2,209.44,221.65,-924,-5400,-4888,0,0,0,34.1349136,-118.1457349,1.59,359.84,1.33,17,1,3,0,1,0
3192461,-2325,-1735,-7167,-1299,-733,-7167,1491.5,209.44,221.65,106,-4094,-4208,0,0,0,34.1349146,-118.1457349,2.80,104.26,1.33,17,1,3,0,1,0
3192561,-2320,-1600,-7120,-1294,-598,-7120,1425.5,204.80,217.02,698,-4654,-3665,0,0,0,34.1349162,-118.1457342,3.26,352.01,1.33,17,1,3,0,1,0
3192661,-2390,-1527,-7175,-1364,-525,-7175,1461.5,201.05,213.27,101,-5663,-3828,0,0,0,34.1349168,-118.1457340,1.05,44.73,1.33,17,1,3,0,1,0
3192761,-2252,-1397,-7270,-1226,-395,-7270,1288.1,197.86,210.07,-230,-9195,-5606,0,0,0,34.1349182,-118.1457334,1.53,12.02,1.33,17,1,3,0,1,0
3192861,-2277,-1175,-7315,-1251,-173,-7315,1262.9,187.87,200.09,2096,-5909,-8048,0,0,0,34.1349197,-118.1457330,2.81,351.71,1.33,17,1,3,0,1,0
3192961,-2295,-1330,-7227,-1269,-328,-7227,1310.7,194.49,206.71,-326,-5490,-1182,0,0,0,34.1349210,-118.1457327,2.55,351.92,1.33,17,1,3,0,1,0
3193061,-2225,-1360,-7222,-1199,-358,-7222,1251.3,196.62,208.84,486,-4525,-5340,0,0,0,34.1349225,-118.1457324,2.52,354.72,1.33,17,1,3,0,1,0
3193161,-2282,-1495,-7195,-1256,-493,-7195,1349.3,201.43,213.65,-475,-5431,-2726,0,0,0,34.1349237,-118.1457319,2.39,350.90,1.33,17,1,3,0,1,0
3193262,-2140,-1532,-7250,-1114,-530,-7250,1233.7,205.44,217.66,-91,-7407,-5779,0,0,0,34.1349250,-118.1457315,1.54,10.96,1.33,17,1,3,0,1,0
3193361,-2215,-1532,-7227,-1189,-530,-7227,1301.8,204.03,216.24,1195,-8561,-7366,0,0,0,34.1349265,-118.1457310,1.73,16.39,1.33,17,1,3,0,1,0
3193461,-2385,-1505,-7167,-1359,-503,-7167,1449.1,200.31,212.53,-431,-4949,-3579,0,0,0,34.1349278,-118.1457305,2.18,18.78,1.33,17,1,3,0,1,0
3193561,-2182,-1567,-7200,-1156,-565,-7200,1286.7,206.05,218.26,-255,-3706,-3786,0,0,0,34.1349292,-118.1457300,2.09,14.73,1.33,17,1,3,0,1,0
3193661,-2132,-1437,-7232,-1106,-435,-7232,1188.5,201.47,213.69,157,-4835,-3923,0,0,0,34.1349305,-118.1457296,2.02,3.78,1.33,17,1,3,0,1,0
3193761,-2207,-1277,-7272,-1181,-275,-7272,1212.6,193.11,205.32,139,-6099,-5109,0,0,0,34.1349315,-118.1457294,1.85,1.27,1.33,17,1,3,0,1,0
3193861,-2160,-1225,-7212,-1134,-223,-7212,1155.7,191.13,203.34,-438,-8091,-5820,0,0,0,34.1349326,-118.1457291,1.81,359.19,1.33,17,1,3,0,1,0
3193961,-2085,-1122,-7302,-1059,-120,-7302,1065.8,186.46,198.68,966,-5200,-7415,0,0,0,34.1349334,-118.1457288,2.05,359.57,1.33,17,1,3,0,1,0
3194061,-2155,-1252,-7237,-1129,-250,-7237,1156.3,192.49,204.70,136,-5073,-2842,0,0,0,34.1349340,-118.1457284,2.66,6.73,1.33,17,1,3,0,1,0
3194161,-2132,-1272,-7250,-1106,-270,-7250,1138.5,193.72,205.94,638,-4881,-5186,0,0,0,34.1349346,-118.1457279,2.32,12.77,1.33,17,1,3,0,1,0
3194261,-2257,-1440,-7172,-1231,-438,-7172,1306.6,199.59,211.80,-445,-5045,-2777,0,0,0,34.1349352,-118.1457277,2.41,2.19,1.33,17,1,3,0,1,0
3194361,-2327,-1377,-7217,-1301,-375,-7217,1354.0,196.08,208.30,288,-7240,-5897,0,0,0,34.1349360,-118.1457277,2.49,352.00,1.33,17,1,3,0,1,0
3194461,-2320,-1350,-7115,-1294,-348,-7115,1340.0,195.05,207.27,1307,-7877,-7719,0,0,0,34.1349367,-118.1457274,3.04,1.22,1.33,17,1,3,0,1,0
3194561,-2470,-1465,-7110,-1444,-463,-7110,1516.4,197.78,209.99,-1486,-5350,-3246,0,0,0,34.1349377,-118.1457270,3.19,9.41,1.33,17,1,3,0,1,0
3194661,-2402,-1495,-7110,-1376,-493,-7110,1461.7,199.71,211.93,509,-4290,-3643,0,0,0,34.1349388,-118.1457270,3.04,358.92,1.33,17,1,3,0,1,0
3194761,-2337,-1372,-7130,-1311,-370,-7130,1362.2,195.76,207.98,646,-4746,-3441,0,0,0,34.1349397,-118.1457270,2.34,357.85,1.33,17,1,3,0,1,0
3194861,-2347,-1302,-7140,-1321,-300,-7140,1354.6,192.79,205.01,404,-6289,-4875,0,0,0,34.1349404,-118.1457266,1.88,8.02,1.33,17,1,3,0,1,0
3194961,-2277,-1162,-7142,-1251,-160,-7142,1261.2,187.29,199.50,766,-7889,-6107,0,0,0,34.1349410,-118.1457264,1.72,2.36,1.33,17,1,3,0,1,0
3195061,-2295,-1205,-7125,-1269,-203,-7125,1285.1,189.09,201.30,611,-4082,-6656,0,0,0,34.1349417,-118.1457264,2.04,348.43,1.33,17,1,3,0,1,0
3195161,-2277,-1310,-7082,-1251,-308,-7082,1288.4,193.83,206.05,343,-5975,-3563,0,0,0,34.1349426,-118.1457261,2.90,356.36,1.33,17,1,3,0,1,0
3195261,-2357,-1417,-7130,-1331,-415,-7130,1394.2,197.32,209.53,-343,-4317,-3286,0,0,0,34.1349439,-118.1457257,2.70,5.61,1.44,16,1,3,0,1,0
3195361,-2352,-1517,-7005,-1326,-515,-7005,1422.5,201.23,213.44,-602,-6220,-4377,0,0,0,34.1349452,-118.1457255,3.00,4.69,1.44,16,1,3,0,1,0
3195462,-2502,-1605,-7012,-1476,-603,-7012,1594.4,202.22,214.44,-126,-8215,-5886,0,0,0,34.1349463,-118.1457253,2.23,4.92,1.44,16,1,3,0,1,0
3195561,-2460,-1577,-7007,-1434,-575,-7007,1545.0,201.85,214.07,383,-5823,-6495,0,0,0,34.1349463,-118.1457253,2.23,4.92,1.44,16,1,3,0,1,0
3195661,-2437,-1692,-7060,-1411,-690,-7060,1570.7,206.06,218.28,-415,-3832,-4707,0,0,0,34.1349479,-118.1457249,1.28,352.32,1.44,16,1,3,0,1,0
3195761,-2412,-1585,-7005,-1386,-583,-7005,1503.6,202.81,215.03,1396,-5088,-3972,0,0,0,34.1349489,-118.1457250,2.64,345.10,1.22,17,1,3,0,1,0
3195861,-2610,-1630,-6972,-1584,-628,-6972,1703.9,201.63,213.84,322,-5563,-4430,0,0,0,34.1349498,-118.1457250,2.32,350.05,1.22,17,1,3,0,1,0
3195961,-2787,-1620,-6902,-1761,-618,-6902,1866.3,199.34,211.55,163,-8196,-5452,0,0,0,34.1349511,-118.1457245,3.28,6.84,1.22,17,1,3,0,1,0
3196061,-2872,-1562,-6865,-1846,-560,-6865,1929.1,196.88,209.09,1709,-7267,-6701,0,0,0,34.1349522,-118.1457239,2.45,10.51,1.22,17,1,3,0,1,0
3196161,-2932,-1625,-6800,-1906,-623,-6800,2005.2,198.10,210.32,146,-4976,-3222,0,0,0,34.1349527,-118.1457238,1.52,2.52,1.44,16,1,3,0,1,0
3196261,-2942,-1595,-6795,-1916,-593,-6795,2005.7,197.20,209.41,727,-5128,-4429,0,0,0,34.1349522,-118.1457242,1.83,355.64,1.44,16,1,3,0,1,0
3196361,-3130,-1630,-6677,-2104,-628,-6677,2195.7,196.62,208.84,-1278,-4961,-1126,0,0,0,34.1349527,-118.1457242,2.60,356.77,1.44,16,1,3,0,1,0
3196461,-3300,-1585,-6670,-2274,-583,-6670,2347.5,194.38,206.60,747,-8467,-2948,0,0,0,34.1349527,-118.1457241,1.69,5.96,1.44,16,1,3,0,1,0
3196561,-3162,-1580,-6660,-2136,-578,-6660,2212.8,195.14,207.36,481,-9192,-5710,0,0,0,34.1349524,-118.1457238,1.69,11.51,1.44,16,1,3,0,1,0
3196661,-3177,-1657,-6612,-2151,-655,-6612,2248.5,196.94,209.15,-792,-6699,-2148,0,0,0,34.1349527,-118.1457233,2.53,6.96,1.44,16,1,3,0,1,0
3196761,-3000,-1712,-6822,-1974,-710,-6822,2097.8,199.78,212.00,436,-4548,-3629,0,0,0,34.1349533,-118.1457231,3.00,358.40,1.44,16,1,3,0,1,0
3196861,-2937,-1702,-6822,-1911,-700,-6822,2035.2,200.12,212.33,620,-5131,-3001,0,0,0,34.1349543,-118.1457229,3.09,353.60,1.44,16,1,3,0,1,0
3196961,-3037,-1600,-6767,-2011,-598,-6767,2098.0,196.56,208.78,-491,-6834,-3199,0,0,0,34.1349548,-118.1457230,2.33,357.15,1.44,16,1,3,0,1,0
3197061,-2947,-1437,-6850,-1921,-435,-6850,1969.6,192.76,204.98,1133,-9785,-5366,0,0,0,34.1349549,-118.1457228,1.40,4.12,1.44,16,1,3,0,1,0
3197161,-3087,-1460,-6772,-2061,-458,-6772,2111.3,192.53,204.74,858,-5268,-5994,0,0,0,34.1349549,-118.1457224,1.65,7.14,1.44,16,1,3,0,1,0
3197261,-3112,-1455,-6780,-2086,-453,-6780,2134.6,192.25,204.47,480,-7853,-1435,0,0,0,34.1349552,-118.1457222,2.15,1.63,1.44,16,1,3,0,1,0
3197361,-3032,-1625,-6805,-2006,-623,-6805,2100.5,197.25,209.47,387,-4890,-3515,0,0,0,34.1349561,-118.1457219,2.89,4.56,1.44,16,1,3,0,1,0
3197461,-3092,-1755,-6785,-2066,-753,-6785,2198.9,200.03,212.24,-1075,-5846,-2487,0,0,0,34.1349570,-118.1457217,2.86,6.91,1.44,16,1,3,0,1,0
3197561,-3077,-1730,-6725,-2051,-728,-6725,2176.4,199.54,211.76,720,-7787,-5202,0,0,0,34.1349578,-118.1457214,2.54,8.65,1.44,16,1,3,0,1,0
3197661,-3345,-1707,-6650,-2319,-705,-6650,2423.8,196.91,209.13,1135,-9276,-4546,0,0,0,34.1349584,-118.1457211,2.32,10.40,1.44,16,1,3,0,1,0
3197761,-3477,-1697,-6535,-2451,-695,-6535,2547.6,195.83,208.05,-1204,-5860,-750,0,0,0,34.1349593,-118.1457210,2.85,2.82,1.44,16,1,3,0,1,0
3197861,-3082,-1692,-6772,-2056,-690,-6772,2168.7,198.55,210.77,1133,-5622,-3654,0,0,0,34.1349602,-118.1457209,2.88,1.52,1.44,16,1,3,0,1,0
3197961,-2872,-1600,-6902,-1846,-598,-6902,1940.4,197.95,210.17,166,-5032,-3725,0,0,0,34.1349614,-118.1457208,2.69,1.62,1.44,16,1,3,0,1,0
3198061,-2882,-1445,-6860,-1856,-443,-6860,1908.1,193.42,205.64,-494,-6421,-4118,0,0,0,34.1349625,-118.1457206,2.87,9.16,1.44,16,1,3,0,1,0
3198161,-2890,-1407,-6850,-1864,-405,-6850,1907.5,192.26,204.47,571,-9105,-4738,0,0,0,34.1349634,-118.1457202,2.31,16.75,1.44,16,1,3,0,1,0
3198261,-2990,-1340,-6822,-1964,-338,-6822,1992.9,189.76,201.98,270,-5473,-4598,0,0,0,34.1349641,-118.1457199,2.38,11.30,1.44,16,1,3,0,1,0
3198361,-2925,-1297,-6875,-1899,-295,-6875,1921.8,188.83,201.05,-10,-7165,-3316,0,0,0,34.1349650,-118.1457196,2.22,3.93,1.44,16,1,3,0,1,0
3198461,-3065,-1480,-6817,-2039,-478,-6817,2094.3,193.19,205.41,140,-4471,-2484,0,0,0,34.1349661,-118.1457194,2.26,3.48,1.44,16,1,3,0,1,0
3198561,-3205,-1547,-6725,-2179,-545,-6725,2246.1,194.04,206.26,-878,-6967,-2965,0,0,0,34.1349661,-118.1457192,1.97,32.72,1.44,16,1,3,0,1,0
3198661,-3190,-1645,-6725,-2164,-643,-6725,2257.5,196.55,208.76,51,-9260,-2937,0,0,0,34.1349675,-118.1457195,2.62,350.24,1.44,16,1,3,0,1,0
3198761,-2877,-1865,-6845,-1851,-863,-6845,2042.3,205.00,217.21,-556,-6326,-1734,0,0,0,34.1349687,-118.1457193,2.58,6.82,1.44,16,1,3,0,1,0
3198861,-1967,-1755,-7240,-941,-753,-7240,1205.2,218.67,230.88,-229,-3717,-6862,0,0,0,34.1349700,-118.1457188,3.37,18.84,1.44,16,1,3,0,1,0
3198961,-1377,-1667,-7335,-351,-665,-7335,751.9,242.17,254.39,495,-4919,-7743,0,0,0,34.1349712,-118.1457186,2.72,0.82,1.44,16,1,3,0,1,0
3199061,-1457,-1652,-7217,-431,-650,-7217,779.9,236.45,248.67,-194,-4019,-4225,0,0,0,34.1349726,-118.1457185,1.65,2.59,1.44,16,1,3,0,1,0
3199161,-1555,-1500,-7310,-529,-498,-7310,726.5,223.27,235.49,-206,-5288,-5716,0,0,0,34.1349739,-118.1457182,1.13,6.92,1.44,16,1,3,0,1,0
3199261,-1420,-1330,-7342,-394,-328,-7342,512.7,219.78,231.99,2069,-7043,-9696,0,0,0,34.1349752,-118.1457179,0.24,0.00,1.44,16,1,3,0,1,0
3199361,-1490,-1402,-7315,-464,-400,-7315,612.6,220.76,232.98,52,-3040,-4238,0,0,0,34.1349764,-118.1457177,0.46,359.19,1.44,16,1,3,0,1,0
3199461,-1307,-1422,-7367,-281,-420,-7367,505.3,236.22,248.43,325,-3982,-4935,0,0,0,34.1349777,-118.1457175,0.27,350.70,1.44,16,1,3,0,1,0
3199561,-1335,-1702,-7297,-309,-700,-7297,765.2,246.18,258.40,-1189,-4070,-4351,0,0,0,34.1349789,-118.1457174,0.51,347.34,1.44,16,1,3,0,1,0
3199661,-1387,-1692,-7310,-361,-690,-7310,778.7,242.38,254.60,91,-6289,-5932,0,0,0,34.1349801,-118.1457172,0.92,355.46,1.44,16,1,3,0,1,0
3199761,-1500,-1657,-7335,-474,-655,-7335,808.5,234.11,246.32,192,-8411,-6719,0,0,0,34.1349813,-118.1457170,0.65,1.06,1.44,16,1,3,0,1,0
3199861,-1555,-1687,-7255,-529,-685,-7255,865.5,232.32,244.54,-907,-4518,-5833,0,0,0,34.1349825,-118.1457167,0.85,8.89,1.44,16,1,3,0,1,0
3199961,-1512,-1645,-7282,-486,-643,-7282,806.0,232.92,245.13,-28,-2855,-5226,0,0,0,34.1349836,-118.1457166,0.71,11.30,1.44,16,1,3,0,1,0
3200061,-1550,-1630,-7287,-524,-628,-7287,817.9,230.16,242.37,1172,-4534,-4148,0,0,0,34.1349847,-118.1457167,0.92,352.45,1.44,16,1,3,0,1,0
3200161,-1687,-1600,-7287,-661,-598,-7287,891.4,222.14,234.35,357,-4467,-5092,0,0,0,34.1349859,-118.1457168,1.38,343.75,1.44,16,1,3,0,1,0
3200261,-1650,-1505,-7292,-624,-503,-7292,801.5,218.87,231.09,131,-7881,-5407,0,0,0,34.1349865,-118.1457171,0.72,0.00,1.44,16,1,3,0,1,0
3200361,-1565,-1235,-7367,-539,-233,-7367,587.2,203.38,215.59,1444,-4234,-9167,0,0,0,34.1349871,-118.1457172,1.28,0.00,1.44,16,1,3,0,1,0
3200461,-1420,-1262,-7310,-394,-260,-7310,472.1,213.42,225.64,245,-5776,-3502,0,0,0,34.1349880,-118.1457174,1.39,8.75,1.44,16,1,3,0,1,0
3200561,-1357,-1355,-7400,-331,-353,-7400,483.9,226.84,239.06,-53,-3606,-5205,0,0,0,34.1349885,-118.1457177,1.69,7.87,1.44,16,1,3,0,1,0
3200661,-1427,-1475,-7325,-401,-473,-7325,620.1,229.71,241.93,-446,-4965,-5208,0,0,0,34.1349894,-118.1457179,1.78,7.25,1.44,16,1,3,0,1,0
3200761,-1425,-1567,-7390,-399,-565,-7390,691.7,234.77,246.99,-351,-6043,-6817,0,0,0,34.1349893,-118.1457183,0.67,6.13,1.44,16,1,3,0,1,0
3200861,-1330,-1455,-7380,-304,-453,-7380,545.6,236.14,248.35,1505,-5507,-9701,0,0,0,34.1349893,-118.1457186,0.31,0.00,1.44,16,1,3,0,1,0
3200961,-1372,-1672,-7395,-346,-670,-7395,754.1,242.69,254.90,-936,-3483,-4919,0,0,0,34.1349899,-118.1457187,0.91,0.00,1.44,16,1,3,0,1,0
3201061,-1190,-1495,-7385,-164,-493,-7385,519.6,251.60,263.82,810,-3776,-3864,0,0,0,34.1349909,-118.1457184,2.56,27.89,1.44,16,1,3,0,1,0
3201161,-1227,-1445,-7367,-201,-443,-7367,486.5,245.60,257.81,-14,-4064,-4634,0,0,0,34.1349923,-118.1457180,3.08,22.94,1.44,16,1,3,0,1,0
3201261,-1297,-1305,-7390,-271,-303,-7390,406.5,228.19,240.41,-190,-5769,-7014,0,0,0,34.1349935,-118.1457178,1.14,17.46,1.44,16,1,3,0,1,0
3201361,-1232,-1277,-7400,-206,-275,-7400,343.6,233.16,245.38,1619,-6126,-7961,0,0,0,34.1349942,-118.1457174,0.80,23.87,1.44,16,1,3,0,1,0
3201461,-1432,-1242,-7337,-406,-240,-7337,471.6,210.59,222.80,134,-2405,-4720,0,0,0,34.1349948,-118.1457172,0.50,28.98,1.44,16,1,3,0,1,0
3201561,-1320,-1320,-7357,-294,-318,-7357,433.1,227.25,239.46,-473,-4910,-4359,0,0,0,34.1349955,-118.1457170,0.60,29.32,1.44,16,1,3,0,1,0
3201661,-1275,-1397,-7390,-249,-395,-7390,466.9,237.77,249.99,-828,-3949,-4068,0,0,0,34.1349966,-118.1457168,1.99,14.92,1.44,16,1,3,0,1,0
3201761,-1277,-1495,-7380,-251,-493,-7380,553.2,243.02,255.23,613,-6102,-5454,0,0,0,34.1349980,-118.1457167,1.95,8.91,1.44,16,1,3,0,1,0
3201861,-1312,-1460,-7395,-286,-458,-7395,540.0,238.02,250.23,870,-8878,-7644,0,0,0,34.1349991,-118.1457163,1.82,15.41,1.44,16,1,3,0,1,0
3201961,-1245,-1750,-7385,-219,-748,-7385,779.4,253.68,265.90,-2199,-4050,-6076,0,0,0,34.1350001,-118.1457159,1.18,21.87,1.44,16,1,3,0,1,0
3202061,-1372,-1735,-7370,-346,-733,-7370,810.6,244.73,256.95,524,-2375,-4803,0,0,0,34.1350009,-118.1457156,1.39,15.89,1.44,16,1,3,0,1,0
3202161,-1527,-1725,-7357,-501,-723,-7357,879.6,235.28,247.50,1023,-4332,-3208,0,0,0,34.1350019,-118.1457155,1.83,5.77,1.44,16,1,3,0,1,0
3202261,-1245,-1702,-7417,-219,-700,-7417,733.5,252.63,264.84,-142,-4545,-6250,0,0,0,34.1350034,-118.1457154,2.52,4.69,1.44,16,1,3,0,1,0
3202361,-1277,-1595,-7370,-251,-593,-7370,643.9,247.06,259.27,-185,-7599,-7289,0,0,0,34.1350045,-118.1457150,2.55,11.95,1.44,16,1,3,0,1,0
3202461,-1212,-1552,-7437,-186,-550,-7437,580.6,251.32,263.53,1375,-3649,-9291,0,0,0,34.1350056,-118.1457145,2.00,20.11,1.44,16,1,3,0,1,0
3202561,-1227,-1755,-7412,-201,-753,-7412,779.4,255.05,267.27,-776,-4858,-1638,0,0,0,34.1350065,-118.1457143,1.71,15.96,1.44,16,1,3,0,1,0
3202661,-1157,-1852,-7450,-131,-850,-7450,860.0,261.24,273.45,104,-3718,-5544,0,0,0,34.1350073,-118.1457140,1.56,11.13,1.44,16,1,3,0,1,0
3202761,-1282,-1942,-7325,-256,-940,-7325,974.2,254.77,266.98,-650,-4914,-4632,0,0,0,34.1350083,-118.1457137,1.82,13.62,1.44,16,1,3,0,1,0
3202861,-1282,-1910,-7347,-256,-908,-7347,943.4,254.25,266.47,365,-6736,-7767,0,0,0,34.1350094,-118.1457133,2.45,18.60,1.44,16,1,3,0,1,0
3202961,-1362,-1870,-7460,-336,-868,-7460,930.8,248.84,261.05,660,-4899,-9002,0,0,0,34.1350104,-118.1457129,2.07,18.02,1.44,16,1,3,0,1,0
3203061,-1465,-1947,-7385,-439,-945,-7385,1042.0,245.08,257.30,-1211,-3348,-3663,0,0,0,34.1350113,-118.1457126,2.14,16.10,1.44,16,1,3,0,1,0
3203161,-1277,-1832,-7455,-251,-830,-7455,867.1,253.17,265.39,601,-4045,-4448,0,0,0,34.1350120,-118.1457128,1.76,8.15,1.33,17,1,3,0,1,0
3203261,-1212,-1730,-7510,-186,-728,-7510,751.4,255.67,267.88,-206,-4234,-4811,0,0,0,34.1350130,-118.1457131,2.23,4.74,1.33,17,1,3,0,1,0
3203361,-1217,-1677,-7407,-191,-675,-7407,701.5,254.20,266.42,-627,-5217,-6292,0,0,0,34.1350141,-118.1457133,2.83,11.24,1.33,17,1,3,0,1,0
3203461,-1057,-1500,-7542,-31,-498,-7542,499.0,266.44,278.65,1317,-7037,-8766,0,0,0,34.1350151,-118.1457134,2.97,10.30,1.33,17,1,3,0,1,0
3203561,-1320,-1495,-7515,-294,-493,-7515,574.0,239.19,251.41,978,-2226,-6589,0,0,0,34.1350162,-118.1457135,1.22,4.69,1.33,17,1,3,0,1,0
3203661,-1470,-1507,-7455,-444,-505,-7455,672.4,228.68,240.89,407,-5965,-2911,0,0,0,34.1350162,-118.1457138,1.71,0.96,1.33,17,1,3,0,1,0
3203761,-1367,-1572,-7612,-341,-570,-7612,664.2,239.11,251.33,-184,-3711,-4581,0,0,0,34.1350167,-118.1457140,2.75,7.37,1.33,17,1,3,0,1,0
3203862,-1447,-1677,-7380,-421,-675,-7380,795.5,238.05,250.26,-217,-5335,-4390,0,0,0,34.1350175,-118.1457143,1.90,14.04,1.33,17,1,3,0,1,0
3203961,-1320,-1677,-7585,-294,-675,-7585,736.2,246.46,258.68,648,-8520,-8666,0,0,0,34.1350183,-118.1457145,1.90,17.58,1.33,17,1,3,0,1,0
3204061,-1395,-1667,-7632,-369,-665,-7632,760.5,240.97,253.19,-755,-4063,-7360,0,0,0,34.1350191,-118.1457146,2.98,16.24,1.33,17,1,3,0,1,0
3204161,-1522,-1765,-7437,-496,-763,-7437,910.0,236.97,249.19,-1034,-2349,-4132,0,0,0,34.1350202,-118.1457144,3.18,14.89,1.33,17,1,3,0,1,0
3204261,-1395,-1652,-7472,-369,-650,-7472,747.4,240.42,252.63,1410,-4485,-4449,0,0,0,34.1350212,-118.1457141,2.92,3.40,1.33,17,1,3,0,1,0
3204362,-1362,-1605,-7627,-336,-603,-7627,690.3,240.87,253.09,776,-4533,-5671,0,0,0,34.1350222,-118.1457140,2.44,356.02,1.33,17,1,3,0,1,0
3204461,-1502,-1507,-7580,-476,-505,-7580,694.0,226.69,238.91,-235,-5804,-7187,0,0,0,34.1350229,-118.1457140,1.74,350.06,1.33,17,1,3,0,1,0
3204561,-1527,-1257,-7455,-501,-255,-7455,562.2,206.98,219.19,1124,-5450,-8062,0,0,0,34.1350237,-118.1457139,1.74,354.97,1.33,17,1,3,0,1,0
3204661,-1597,-1432,-7622,-571,-430,-7622,714.8,216.98,229.20,73,-4052,-4025,0,0,0,34.1350243,-118.1457137,1.75,357.36,1.33,17,1,3,0,1,0
3204761,-1555,-1512,-7385,-529,-510,-7385,734.8,223.95,236.17,-327,-3433,-4834,0,0,0,34.1350252,-118.1457138,2.15,358.46,1.33,17,1,3,0,1,0
3204861,-1512,-1827,-7417,-486,-825,-7417,957.5,239.50,251.71,-749,-4365,-4289,0,0,0,34.1350259,-118.1457138,2.03,356.42,1.33,17,1,3,0,1,0
3204961,-1577,-1915,-7547,-551,-913,-7547,1066.4,238.89,251.10,910,-6742,-6385,0,0,0,34.1350265,-118.1457138,1.43,359.90,1.33,17,1,3,0,1,0
3205061,-1742,-1895,-7292,-716,-893,-7292,1144.6,231.28,243.49,1109,-7404,-8290,0,0,0,34.1350272,-118.1457136,1.96,4.49,1.33,17,1,3,0,1,0
3205161,-1662,-2102,-7390,-636,-1100,-7390,1270.6,239.96,252.18,-2641,-4030,-4602,0,0,0,34.1350279,-118.1457135,2.62,3.59,1.33,17,1,3,0,1,0
3205261,-1650,-2020,-7645,-624,-1018,-7645,1194.0,238.49,250.71,317,-3281,-4780,0,0,0,34.1350297,-118.1457141,2.67,0.85,1.33,17,1,3,0,1,0
3205361,-1785,-1870,-7325,-759,-868,-7325,1153.0,228.83,241.05,1400,-4465,-3964,0,0,0,34.1350304,-118.1457140,1.82,359.39,1.33,17,1,3,0,1,0
3205461,-1765,-1927,-7537,-739,-925,-7537,1184.0,231.38,243.59,-405,-5241,-5303,0,0,0,34.1350311,-118.1457141,1.61,359.99,1.37,16,1,3,0,1,0
3205561,-1727,-1870,-7640,-701,-868,-7640,1115.7,231.08,243.29,630,-7995,-7032,0,0,0,34.1350321,-118.1457140,1.69,2.61,1.37,16,1,3,0,1,0
3205661,-1687,-1837,-7407,-661,-835,-7407,1065.0,231.63,243.85,73,-3398,-7033,0,0,0,34.1350333,-118.1457141,1.86,357.25,1.37,16,1,3,0,1,0
3205761,-1607,-1895,-7440,-581,-893,-7440,1065.4,236.95,249.17,-2,-5965,-3467,0,0,0,34.1350344,-118.1457143,1.81,348.63,1.37,16,1,3,0,1,0
3205861,-1657,-1995,-7547,-631,-993,-7547,1176.5,237.57,249.78,-292,-3984,-4552,0,0,0,34.1350358,-118.1457146,2.65,349.11,1.37,16,1,3,0,1,0
3205961,-1705,-2170,-7472,-679,-1168,-7472,1351.0,239.83,252.05,-409,-5534,-5597,0,0,0,34.1350370,-118.1457147,2.41,356.00,1.33,17,1,3,0,1,0
3206061,-1737,-2262,-7342,-711,-1260,-7342,1446.8,240.56,252.78,-174,-6869,-6783,0,0,0,34.1350381,-118.1457145,1.87,2.64,1.33,17,1,3,0,1,0
3206161,-1705,-2222,-7492,-679,-1220,-7492,1396.2,240.90,253.12,-1796,-4109,-8660,0,0,0,34.1350393,-118.1457141,2.12,15.09,1.33,17,1,3,0,1,0
3206261,-1752,-2285,-7287,-726,-1283,-7287,1474.2,240.50,252.71,-1624,-3583,-4645,0,0,0,34.1350406,-118.1457138,1.70,12.72,1.33,17,1,3,0,1,0
3206362,-1705,-2112,-7380,-679,-1110,-7380,1301.2,238.55,250.76,1159,-4069,-4280,0,0,0,34.1350417,-118.1457136,1.93,4.81,1.33,17,1,3,0,1,0
3206461,-1807,-2045,-7455,-781,-1043,-7455,1303.0,233.17,245.39,-159,-4339,-5162,0,0,0,34.1350428,-118.1457134,1.84,1.10,1.33,17,1,3,0,1,0
3206561,-1790,-1972,-7292,-764,-970,-7292,1234.7,231.78,243.99,-221,-6585,-6543,0,0,0,34.1350441,-118.1457132,2.02,4.88,1.33,17,1,3,0,1,0
3206661,-1630,-1920,-7477,-604,-918,-7477,1098.9,236.66,248.87,1511,-6449,-9408,0,0,0,34.1350452,-118.1457131,1.60,1.84,1.33,17,1,3,0,1,0
3206761,-1790,-1952,-7470,-764,-950,-7470,1219.1,231.19,243.41,-36,-2917,-3472,0,0,0,34.1350466,-118.1457131,2.16,357.28,1.33,17,1,3,0,1,0
3206861,-1762,-1942,-7305,-736,-940,-7305,1193.9,231.94,244.16,235,-4463,-5906,0,0,0,34.1350479,-118.1457130,1.65,355.12,1.33,17,1,3,0,1,0
3206961,-1952,-2217,-7335,-926,-1215,-7335,1527.6,232.69,244.90,-1288,-4668,-3285,0,0,0,34.1350488,-118.1457129,1.73,0.08,1.33,17,1,3,0,1,0
3207061,-2257,-2045,-7407,-1231,-1043,-7407,1613.4,220.27,232.49,192,-6715,-5332,0,0,0,34.1350496,-118.1457127,1.12,8.91,1.33,17,1,3,0,1,0
3207161,-2235,-2180,-7162,-1209,-1178,-7162,1688.0,224.26,236.47,175,-8523,-4182,0,0,0,34.1350509,-118.1457124,2.32,11.53,1.33,17,1,3,0,1,0
3207261,-2100,-2135,-7302,-1074,-1133,-7302,1561.1,226.53,238.75,-1119,-4346,-4689,0,0,0,34.1350526,-118.1457120,2.65,11.75,1.33,17,1,3,0,1,0
3207362,-1545,-2107,-7445,-519,-1105,-7445,1220.8,244.84,257.06,-136,-3580,-6306,0,0,0,34.1350542,-118.1457117,2.49,9.44,1.33,17,1,3,0,1,0
3207461,-1570,-2057,-7370,-544,-1055,-7370,1187.0,242.72,254.94,482,-4406,-4724,0,0,0,34.1350555,-118.1457117,2.59,1.38,1.33,17,1,3,0,1,0
3207561,-1667,-1952,-7395,-641,-950,-7395,1146.0,235.99,248.21,-454,-4321,-5595,0,0,0,34.1350566,-118.1457116,1.90,0.95,1.33,17,1,3,0,1,0
3207661,-1657,-1842,-7487,-631,-840,-7487,1050.6,233.09,245.30,-84,-7665,-6078,0,0,0,34.1350575,-118.1457114,1.63,5.54,1.33,17,1,3,0,1,0
3207761,-1620,-1720,-7380,-594,-718,-7380,931.9,230.40,242.62,1291,-4032,-7792,0,0,0,34.1350585,-118.1457112,1.86,9.68,1.33,17,1,3,0,1,0
3207861,-1577,-1697,-7450,-551,-695,-7450,886.9,231.59,243.81,627,-6333,-3562,0,0,0,34.1350597,-118.1457109,2.23,8.95,1.33,17,1,3,0,1,0
3207961,-1485,-1915,-7417,-459,-913,-7417,1021.9,243.31,255.53,-413,-3639,-4333,0,0,0,34.1350612,-118.1457106,3.22,5.44,1.33,17,1,3,0,1,0
3208061,-1532,-2000,-7310,-506,-998,-7310,1118.9,243.11,255.33,-943,-5399,-4969,0,0,0,34.1350629,-118.1457104,3.56,2.28,1.33,17,1,3,0,1,0
3208161,-1635,-1977,-7440,-609,-975,-7440,1149.6,238.01,250.23,935,-7977,-7145,0,0,0,34.1350642,-118.1457103,2.38,357.26,1.33,17,1,3,0,1,0
3208261,-1612,-1870,-7535,-586,-868,-7535,1047.3,235.98,248.19,-735,-4781,-7598,0,0,0,34.1350655,-118.1457103,2.44,356.73,1.33,17,1,3,0,1,0
3208361,-1550,-1855,-7427,-524,-853,-7427,1001.1,238.44,250.65,-841,-3138,-6117,0,0,0,34.1350666,-118.1457102,2.00,358.27,1.33,17,1,3,0,1,0
3208461,-1737,-1740,-7530,-711,-738,-7530,1024.8,226.07,238.28,376,-4118,-3986,0,0,0,34.1350679,-118.1457101,2.74,0.86,1.33,17,1,3,0,1,0
3208561,-1952,-1707,-7567,-926,-705,-7567,1163.8,217.28,229.50,-227,-4089,-4000,0,0,0,34.1350693,-118.1457099,3.04,6.27,1.33,17,1,3,0,1,0
3208661,-1915,-1610,-7417,-889,-608,-7417,1077.0,214.37,226.58,-216,-7089,-5760,0,0,0,34.1350703,-118.1457098,2.08,4.87,1.33,17,1,3,0,1,0
3208761,-1817,-1397,-7497,-791,-395,-7497,884.1,206.54,218.75,2596,-5975,-9186,0,0,0,34.1350710,-118.1457098,1.22,0.68,1.33,17,1,3,0,1,0
3208862,-1845,-1407,-7520,-819,-405,-7520,913.7,206.31,218.53,-60,-3344,-3348,0,0,0,34.1350719,-118.1457096,1.81,4.58,1.33,17,1,3,0,1,0
3208961,-1695,-1427,-7487,-669,-425,-7487,792.6,212.43,224.64,97,-4404,-5756,0,0,0,34.1350728,-118.1457095,1.83,4.81,1.33,17,1,3,0,1,0
3209061,-1827,-1672,-7472,-801,-670,-7472,1044.3,219.91,232.13,-1313,-4246,-3772,0,0,0,34.1350736,-118.1457095,1.29,1.40,1.33,17,1,3,0,1,0
3209161,-1995,-1707,-7505,-969,-705,-7505,1198.3,216.04,228.25,-25,-6351,-5463,0,0,0,34.1350744,-118.1457093,1.43,1.73,1.33,17,1,3,0,1,0
3209261,-1995,-1625,-7335,-969,-623,-7335,1152.0,212.74,224.95,537,-8715,-6558,0,0,0,34.1350758,-118.1457089,2.59,9.53,1.33,17,1,3,0,1,0
3209362,-2245,-1715,-7320,-1219,-713,-7320,1412.2,210.32,222.54,-657,-5361,-4814,0,0,0,34.1350774,-118.1457087,2.41,6.55,1.33,17,1,3,0,1,0
3209461,-2257,-1735,-7412,-1231,-733,-7412,1432.7,210.77,222.99,-554,-3882,-4484,0,0,0,34.1350787,-118.1457084,1.98,358.48,1.33,17,1,3,0,1,0
3209561,-2487,-1547,-7270,-1461,-545,-7270,1559.3,200.46,212.67,486,-4281,-3650,0,0,0,34.1350794,-118.1457084,1.39,350.92,1.33,17,1,3,0,1,0
3209661,-2910,-1440,-7227,-1884,-438,-7227,1934.2,193.09,205.30,211,-6012,-3068,0,0,0,34.1350799,-118.1457085,0.85,347.14,1.33,17,1,3,0,1,0
3209761,-2900,-1445,-7212,-1874,-443,-7212,1925.6,193.30,205.52,15,-9307,-3967,0,0,0,34.1350807,-118.1457083,1.21,5.61,1.33,17,1,3,0,1,0
3209861,-2765,-1287,-7237,-1739,-285,-7237,1762.2,189.31,201.52,1466,-5400,-7352,0,0,0,34.1350822,-118.1457079,2.76,14.10,1.33,17,1,3,0,1,0
3209961,-2740,-1397,-7287,-1714,-395,-7287,1758.9,192.98,205.19,97,-6981,-2333,0,0,0,34.1350834,-118.1457077,2.59,7.38,1.33,17,1,3,0,1,0
3210062,-2750,-1500,-7265,-1724,-498,-7265,1794.5,196.11,208.33,-114,-4504,-3815,0,0,0,34.1350844,-118.1457078,1.28,346.61,1.33,17,1,3,0,1,0
3210161,-2845,-1577,-7105,-1819,-575,-7105,1907.7,197.54,209.76,-583,-6293,-3312,0,0,0,34.1350852,-118.1457076,1.70,346.56,1.33,17,1,3,0,1,0
3210261,-2975,-1567,-7082,-1949,-565,-7082,2029.2,196.17,208.38,-133,-7869,-4760,0,0,0,34.1350863,-118.1457073,1.92,0.26,1.33,17,1,3,0,1,0
3210361,-2970,-1507,-7055,-1944,-505,-7055,2008.5,194.56,206.78,1144,-7115,-6744,0,0,0,34.1350875,-118.1457069,2.37,13.08,1.33,17,1,3,0,1,0
3210461,-2887,-1580,-6980,-1861,-578,-6980,1948.7,197.25,209.47,-1115,-5374,-3985,0,0,0,34.1350886,-118.1457068,2.34,11.03,1.33,17,1,3,0,1,0
3210561,-2932,-1440,-7115,-1906,-438,-7115,1955.7,192.94,205.16,680,-5424,-3218,0,0,0,34.1350903,-118.1457070,2.90,357.39,1.33,17,1,3,0,1,0
3210661,-3092,-1257,-7037,-2066,-255,-7037,2081.7,187.04,199.25,-133,-4718,-2502,0,0,0,34.1350921,-118.1457073,3.12,349.03,1.33,17,1,3,0,1,0
3210761,-2980,-1137,-6990,-1954,-135,-6990,1958.7,183.95,196.17,-180,-7024,-4445,0,0,0,34.1350932,-118.1457075,1.78,344.52,1.33,17,1,3,0,1,0
3210861,-3065,-992,-6995,-2039,10,-6995,2039.0,179.72,191.94,1454,-7977,-6395,0,0,0,34.1350941,-118.1457073,1.59,352.39,1.33,17,1,3,0,1,0
3210961,-3107,-1142,-7000,-2081,-140,-7000,2085.7,183.85,196.06,61,-4459,-2952,0,0,0,34.1350949,-118.1457072,1.45,0.70,1.33,17,1,3,0,1,0
3211061,-2985,-1090,-7065,-1959,-88,-7065,1961.0,182.57,194.79,656,-4998,-3671,0,0,0,34.1350956,-118.1457072,1.30,354.85,1.33,17,1,3,0,1,0
3211161,-2952,-1360,-7070,-1926,-358,-7070,1959.0,190.53,202.75,-1082,-4884,-2136,0,0,0,34.1350966,-118.1457074,2.05,348.59,1.33,17,1,3,0,1,0
3211261,-2957,-1397,-7072,-1931,-395,-7072,1971.0,191.56,203.78,324,-7582,-4335,0,0,0,34.1350976,-118.1457072,3.31,358.69,1.33,17,1,3,0,1,0
3211361,-2882,-1402,-7022,-1856,-400,-7022,1898.6,192.16,204.38,257,-9787,-4651,0,0,0,34.1350983,-118.1457070,2.58,5.19,1.33,17,1,3,0,1,0
3211461,-2970,-1470,-7032,-1944,-468,-7032,1999.5,193.54,205.75,-146,-6132,-5986,0,0,0,34.1350986,-118.1457068,1.38,358.74,1.33,17,1,3,0,1,0
3211561,-2927,-1387,-7017,-1901,-385,-7017,1939.6,191.45,203.67,-174,-3699,-4419,0,0,0,34.1350992,-118.1457068,1.81,354.25,1.33,17,1,3,0,1,0
3211661,-2882,-1262,-7027,-1856,-260,-7027,1874.1,187.97,200.19,999,-5194,-2406,0,0,0,34.1350999,-118.1457070,2.29,353.80,1.33,17,1,3,0,1,0
3211761,-2820,-1252,-7027,-1794,-250,-7027,1811.3,187.93,200.15,17,-5522,-3406,0,0,0,34.1351007,-118.1457073,2.60,359.63,1.33,17,1,3,0,1,0
3211861,-2662,-1185,-7077,-1636,-183,-7077,1646.2,186.38,198.60,-543,-8364,-5444,0,0,0,34.1351015,-118.1457072,2.25,10.65,1.33,17,1,3,0,1,0
3211961,-2295,-915,-7120,-1269,87,-7120,1272.0,176.08,188.29,2965,-7689,-9702,0,0,0,34.1351024,-118.1457071,2.33,15.45,1.33,17,1,3,0,1,0
3212061,-2642,-1237,-7130,-1616,-235,-7130,1633.0,188.27,200.49,239,-3463,-1891,0,0,0,34.1351034,-118.1457073,2.92,8.31,1.33,17,1,3,0,1,0
3212161,-2587,-1180,-7125,-1561,-178,-7125,1571.1,186.51,198.72,1038,-5143,-4466,0,0,0,34.1351045,-118.1457075,3.41,1.81,1.33,17,1,3,0,1,0
3212261,-2507,-1277,-7037,-1481,-275,-7037,1506.3,190.52,202.74,-1262,-5068,-2306,0,0,0,34.1351066,-118.1457090,3.67,5.08,1.33,17,1,3,0,1,0
3212361,-2567,-1325,-7130,-1541,-323,-7130,1574.5,191.84,204.05,82,-7375,-5207,0,0,0,34.1351082,-118.1457104,3.62,9.21,1.33,17,1,3,0,1,0
3212461,-2512,-1272,-7050,-1486,-270,-7050,1510.3,190.30,202.51,857,-9160,-6462,0,0,0,34.1351098,-118.1457112,3.19,14.01,1.33,17,1,3,0,1,0
3212561,-2657,-1387,-6995,-1631,-385,-6995,1675.8,193.28,205.50,-1822,-5382,-4416,0,0,0,34.1351112,-118.1457123,3.16,12.41,1.33,17,1,3,0,1,0
3212661,-2582,-1407,-7077,-1556,-405,-7077,1607.8,194.59,206.81,-384,-3410,-3661,0,0,0,34.1351128,-118.1457133,2.30,12.35,1.33,17,1,3,0,1,0
3212761,-2577,-1252,-7070,-1551,-250,-7070,1571.0,189.16,201.37,1109,-5281,-3697,0,0,0,34.1351150,-118.1457145,2.61,8.71,1.33,17,1,3,0,1,0
3212861,-2620,-1185,-7032,-1594,-183,-7032,1604.5,186.55,198.77,-222,-5739,-4810,0,0,0,34.1351171,-118.1457154,2.87,9.87,1.33,17,1,3,0,1,0
3212961,-2615,-1085,-7102,-1589,-83,-7102,1591.2,182.99,195.21,-201,-8757,-4769,0,0,0,34.1351190,-118.1457165,2.34,6.71,1.22,18,1,3,0,1,0
3213061,-2567,-1012,-7072,-1541,-10,-7072,1541.0,180.37,192.59,1399,-5838,-7766,0,0,0,34.1351208,-118.1457172,2.36,3.06,1.33,17,1,3,0,1,0
3213161,-2572,-1247,-7007,-1546,-245,-7007,1565.3,189.00,201.22,-270,-5371,-1746,0,0,0,34.1351226,-118.1457180,1.76,1.01,1.33,17,1,3,0,1,0
3213261,-2577,-1330,-7017,-1551,-328,-7017,1585.3,191.94,204.16,727,-5253,-4946,0,0,0,34.1351234,-118.1457181,1.14,356.44,1.33,17,1,3,0,1,0
3213361,-2662,-1480,-6957,-1636,-478,-6957,1704.4,196.29,208.50,-728,-5406,-3214,0,0,0,34.1351247,-118.1457182,1.66,349.65,1.33,17,1,3,0,1,0
3213461,-2797,-1600,-6877,-1771,-598,-6877,1869.2,198.66,210.87,-286,-7023,-4365,0,0,0,34.1351261,-118.1457184,1.71,351.40,1.33,17,1,3,0,1,0
3213561,-2980,-1755,-6805,-1954,-753,-6805,2094.1,201.07,213.29,-462,-9707,-4018,0,0,0,34.1351270,-118.1457187,1.33,359.14,1.33,17,1,3,0,1,0
3213661,-2975,-1842,-6772,-1949,-840,-6772,2122.3,203.32,215.53,-642,-5749,-3558,0,0,0,34.1351281,-118.1457189,1.91,0.73,1.33,17,1,3,0,1,0
3213761,-2845,-1827,-6817,-1819,-825,-6817,1997.3,204.40,216.61,274,-4787,-3753,0,0,0,34.1351293,-118.1457192,2.26,356.95,1.33,17,1,3,0,1,0
3213861,-2812,-1672,-6855,-1786,-670,-6855,1907.5,200.56,212.78,912,-4812,-3777,0,0,0,34.1351302,-118.1457197,1.90,354.04,1.33,17,1,3,0,1,0
3213961,-2787,-1522,-6860,-1761,-520,-6860,1836.2,196.45,208.67,15,-5982,-3567,0,0,0,34.1351310,-118.1457202,1.53,355.29,1.33,17,1,3,0,1,0
3214061,-2637,-1330,-6940,-1611,-328,-6940,1644.1,191.51,203.72,-160,-8625,-4853,0,0,0,34.1351317,-118.1457204,0.34,0.00,1.33,17,1,3,0,1,0
3214161,-2627,-1292,-6995,-1601,-290,-6995,1627.1,190.27,202.48,1981,-5173,-7470,0,0,0,34.1351324,-118.1457204,1.27,13.75,1.33,17,1,3,0,1,0
3214261,-2605,-1365,-6902,-1579,-363,-6902,1620.2,192.95,205.16,640,-6328,-2326,0,0,0,34.1351334,-118.1457206,1.47,7.97,1.33,17,1,3,0,1,0
3214361,-2562,-1500,-6952,-1536,-498,-6952,1614.7,197.96,210.18,-346,-4423,-3610,0,0,0,34.1351345,-118.1457208,1.36,7.76,1.33,17,1,3,0,1,0
3214461,-2515,-1562,-6907,-1489,-560,-6907,1590.8,200.61,212.83,-857,-6071,-4101,0,0,0,34.1351346,-118.1457220,1.50,0.87,1.22,18,1,3,0,1,0
3214561,-2487,-1640,-6910,-1461,-638,-6910,1594.2,203.59,215.81,117,-7765,-5513,0,0,0,34.1351353,-118.1457223,0.92,0.00,1.33,17,1,3,0,1,0
3214661,-2502,-1635,-6990,-1476,-633,-6990,1606.0,203.21,215.43,267,-6522,-7847,0,0,0,34.1351362,-118.1457223,2.45,9.19,1.33,17,1,3,0,1,0
3214761,-2470,-1635,-6925,-1444,-633,-6925,1576.6,203.67,215.89,-1376,-5547,-3455,0,0,0,34.1351370,-118.1457224,2.54,16.54,1.33,17,1,3,0,1,0
3214861,-2400,-1595,-6930,-1374,-593,-6930,1496.5,203.34,215.56,483,-4363,-3790,0,0,0,34.1351380,-118.1457221,2.81,22.77,1.33,17,1,3,0,1,0
3214961,-2482,-1527,-6962,-1456,-525,-6962,1547.8,199.83,212.04,475,-5006,-3159,0,0,0,34.1351391,-118.1457221,2.84,16.80,1.33,17,1,3,0,1,0
3215061,-2475,-1490,-6940,-1449,-488,-6940,1529.0,198.61,210.83,-268,-6025,-5005,0,0,0,34.1351401,-118.1457221,2.69,13.01,1.33,17,1,3,0,1,0
3215161,-2465,-1407,-6915,-1439,-405,-6915,1494.9,195.72,207.94,-6,-8815,-5525,0,0,0,34.1351412,-118.1457222,2.68,9.00,1.33,17,1,3,0,1,0
3215261,-2535,-1335,-6972,-1509,-333,-6972,1545.3,192.44,204.66,1156,-4871,-6033,0,0,0,34.1351420,-118.1457222,2.25,11.01,1.33,17,1,3,0,1,0
3215361,-2422,-1272,-6952,-1396,-270,-6952,1421.9,190.95,203.16,-81,-5707,-1664,0,0,0,34.1351428,-118.1457219,2.13,15.94,1.33,17,1,3,0,1,0
3215461,-2170,-1330,-7115,-1144,-328,-7115,1190.1,196.00,208.21,-285,-4738,-5363,0,0,0,34.1351437,-118.1457215,2.27,21.14,1.22,18,1,3,0,1,0
3215561,-2362,-1480,-7022,-1336,-478,-7022,1418.9,199.69,211.90,-1523,-5597,-3649,0,0,0,34.1351444,-118.1457212,1.72,19.98,1.33,17,1,3,0,1,0
3215661,-2310,-1412,-6940,-1284,-410,-6940,1347.9,197.71,209.93,-126,-7024,-6284,0,0,0,34.1351451,-118.1457209,1.70,18.61,1.33,17,1,3,0,1,0
3215761,-2352,-1377,-6930,-1326,-375,-6930,1378.0,195.79,208.01,290,-7966,-6676,0,0,0,34.1351458,-118.1457209,1.94,6.75,1.22,18,1,3,0,1,0
3215861,-2417,-1485,-6907,-1391,-483,-6907,1472.5,199.15,211.36,-1352,-5433,-3164,0,0,0,34.1351464,-118.1457206,1.82,12.31,1.22,18,1,3,0,1,0
3215961,-2267,-1340,-6975,-1241,-338,-6975,1286.2,195.24,207.45,294,-4001,-3909,0,0,0,34.1351473,-118.1457202,1.89,17.76,1.22,18,1,3,0,1,0
3216061,-2225,-1292,-6980,-1199,-290,-6980,1233.6,193.60,205.81,531,-4998,-4253,0,0,0,34.1351480,-118.1457197,2.10,16.88,1.33,17,1,3,0,1,0
