# cc-radar field sample
# firmware=v26.08.01 build=1785625163
# rtc=2026-08-02 00:03:46
# label=walk-straight
# uptime_ms=3778132
# compass_cal_x=-1026 compass_cal_y=-1002 compass_cal_z=0 calibrated=1
# declination_deg=12.216 declination_valid=1
# h0=unknown
# zoom=3
# accel_enabled=1 accel_addr=0x6B gyro_enabled=0
# mag_scale_lsb_per_uT=120 accel_lsb_per_g=8192 gyro_lsb_per_dps=128
# nominal_rate_hz=10
# i2c_start_ops=57066 i2c_start_fails=20
ms,mx,my,mz,cx,cy,cz,h_mag,heading_mag,heading_true,ax,ay,az,gx,gy,gz,lat,lon,speed_kn,course,hdop,sats,fix_valid,zoom,mag_overflow,accel_valid,gyro_valid
3778161,-5562,-485,-3365,-4536,517,-3365,4565.4,173.50,185.71,-125,-5593,-4724,0,0,0,0,0,0.56,0.00,1.36,19,1,3,0,1,0
3778261,-5717,-545,-3387,-4691,457,-3387,4713.2,174.44,186.65,87,-5529,-4819,0,0,0,0,0,0.39,0.00,1.36,19,1,3,0,1,0
3778362,-5717,-620,-3507,-4691,382,-3507,4706.5,175.34,187.56,245,-5552,-4978,0,0,0,0,0,0.31,0.00,1.36,19,1,3,0,1,0
3778461,-5722,-577,-3540,-4696,425,-3540,4715.2,174.83,187.04,283,-5544,-4855,0,0,0,0,0,0.04,0.00,1.36,19,1,3,0,1,0
3778561,-5665,-635,-3610,-4639,367,-3610,4653.5,175.48,187.69,467,-6380,-4818,0,0,0,0,0,0.55,0.00,1.36,19,1,3,0,1,0
3778661,-5745,-687,-3772,-4719,315,-3772,4729.5,176.18,188.40,-14,-5743,-4638,0,0,0,0,0,0.43,0.00,1.36,19,1,3,0,1,0
3778761,-5657,-582,-3760,-4631,420,-3760,4650.0,174.82,187.03,-134,-5596,-4229,0,0,0,0,0,0.72,0.00,1.36,19,1,3,0,1,0
3778861,-5610,-697,-3955,-4584,305,-3955,4594.1,176.19,188.41,282,-6825,-6796,0,0,0,0,0,1.05,0.00,1.36,19,1,3,0,1,0
3778961,-5590,-635,-4015,-4564,367,-4015,4578.7,175.40,187.62,83,-6835,-5938,0,0,0,0,0,1.65,180.21,1.36,19,1,3,0,1,0
3779061,-5615,-540,-3875,-4589,462,-3875,4612.2,174.25,186.47,299,-5377,-8709,0,0,0,0,0,1.58,177.01,1.36,19,1,3,0,1,0
3779161,-5700,-562,-3502,-4674,440,-3502,4694.7,174.62,186.84,-692,-4481,-5581,0,0,0,0,0,1.66,182.29,1.36,19,1,3,0,1,0
3779261,-5775,-665,-3177,-4749,337,-3177,4760.9,175.94,188.16,-777,-3859,-1567,0,0,0,0,0,1.95,167.61,1.36,19,1,3,0,1,0
3779361,-5727,-422,-3040,-4701,580,-3040,4736.6,172.97,185.18,210,-5513,-1950,0,0,0,0,0,0.95,159.75,1.36,19,1,3,0,1,0
3779461,-5732,-412,-3107,-4706,590,-3107,4742.8,172.85,185.07,194,-6983,-3768,0,0,0,0,0,0.68,172.63,1.36,19,1,3,0,1,0
3779561,-5712,-452,-3215,-4686,550,-3215,4718.2,173.31,185.52,-307,-8303,-6026,0,0,0,0,0,0.68,0.00,1.36,19,1,3,0,1,0
3779661,-5722,-547,-3202,-4696,455,-3202,4718.0,174.47,186.68,1961,-5591,-7563,0,0,0,0,0,1.44,200.98,1.36,19,1,3,0,1,0
3779761,-5740,-820,-3047,-4714,182,-3047,4717.5,177.79,190.01,-600,-4996,-1744,0,0,0,0,0,1.91,186.36,1.36,19,1,3,0,1,0
3779861,-5792,-955,-3145,-4766,47,-3145,4766.2,179.43,191.65,724,-5140,-4646,0,0,0,0,0,2.41,175.56,1.36,19,1,3,0,1,0
3779961,-5775,-1040,-2997,-4749,-38,-2997,4749.2,180.46,192.67,-862,-5560,-2410,0,0,0,0,0,1.72,182.42,1.36,19,1,3,0,1,0
3780062,-5792,-987,-3080,-4766,15,-3080,4766.0,179.82,192.04,-233,-7879,-6170,0,0,0,0,0,1.92,188.73,1.36,19,1,3,0,1,0
3780161,-5775,-795,-3030,-4749,207,-3030,4753.5,177.50,189.72,350,-7539,-7991,0,0,0,0,0,0.85,202.52,1.36,19,1,3,0,1,0
3780261,-5792,-810,-2977,-4766,192,-2977,4769.9,177.69,189.91,-1894,-5766,-2896,0,0,0,0,0,2.07,191.38,1.36,19,1,3,0,1,0
3780361,-5770,-717,-3105,-4744,285,-3105,4752.6,176.56,188.78,78,-4297,-3342,0,0,0,0,0,2.68,174.78,1.36,19,1,3,0,1,0
3780461,-5760,-582,-3155,-4734,420,-3155,4752.6,174.93,187.15,527,-4802,-4225,0,0,0,0,0,3.13,166.15,1.36,19,1,3,0,1,0
3780561,-5777,-617,-3015,-4751,385,-3015,4766.6,175.37,187.58,139,-6509,-4817,0,0,0,0,0,2.07,168.41,1.36,19,1,3,0,1,0
3780661,-5782,-670,-3040,-4756,332,-3040,4767.6,176.01,188.22,591,-8025,-6557,0,0,0,0,0,1.78,185.43,1.36,19,1,3,0,1,0
3780761,-5850,-795,-2862,-4824,207,-2862,4828.4,177.54,189.76,1170,-5114,-4837,0,0,0,0,0,2.63,193.74,1.36,19,1,3,0,1,0
3780861,-5835,-935,-2835,-4809,67,-2835,4809.5,179.20,191.42,70,-5111,-3214,0,0,0,0,0,2.59,183.85,1.36,19,1,3,0,1,0
3780961,-5792,-1102,-2810,-4766,-100,-2810,4767.0,181.20,193.42,-451,-4524,-931,0,0,0,0,0,2.40,178.50,1.25,20,1,3,0,1,0
3781061,-5850,-1035,-3122,-4824,-33,-3122,4824.1,180.39,192.61,-114,-6579,-1875,0,0,0,0,0,2.66,179.57,1.25,20,1,3,0,1,0
3781161,-5707,-842,-3402,-4681,160,-3402,4683.7,178.04,190.26,76,-7740,-6518,0,0,0,0,0,2.43,190.81,1.25,20,1,3,0,1,0
3781261,-5550,-607,-4075,-4524,395,-4075,4541.2,175.01,187.23,208,-3588,-6450,0,0,0,0,0,2.60,192.35,1.25,20,1,3,0,1,0
3781361,-5032,-905,-5227,-4006,97,-5227,4007.2,178.61,190.83,-893,-293,-8401,0,0,0,0,0,3.20,186.24,1.25,20,1,3,0,1,0
3781461,-5052,-680,-5080,-4026,322,-5080,4038.9,175.43,187.64,415,-3662,-6851,0,0,0,0,0,3.12,178.66,1.25,20,1,3,0,1,0
3781561,-5272,-427,-4702,-4246,575,-4702,4284.8,172.29,184.50,783,-3584,-5299,0,0,0,0,0,1.79,173.01,1.25,20,1,3,0,1,0
3781661,-5357,-442,-4490,-4331,560,-4490,4367.1,172.63,184.85,879,-5452,-7467,0,0,0,0,0,1.60,174.39,1.25,20,1,3,0,1,0
3781761,-5352,-495,-4410,-4326,507,-4410,4355.6,173.32,185.53,1441,-4583,-11014,0,0,0,0,0,2.32,176.97,1.25,20,1,3,0,1,0
3781861,-5465,-712,-4275,-4439,290,-4275,4448.5,176.26,188.48,237,-4713,-3471,0,0,0,0,0,2.49,177.10,1.25,20,1,3,0,1,0
3781961,-5507,-930,-4070,-4481,72,-4070,4481.6,179.08,191.30,242,-2992,-2366,0,0,0,0,0,2.62,176.56,1.25,20,1,3,0,1,0
3782061,-5620,-955,-3842,-4594,47,-3842,4594.2,179.41,191.63,923,-4079,-3014,0,0,0,0,0,2.41,177.82,1.25,20,1,3,0,1,0
3782161,-5535,-805,-4117,-4509,197,-4117,4513.3,177.50,189.71,843,-7047,-10575,0,0,0,0,0,1.57,184.58,1.25,20,1,3,0,1,0
3782261,-5492,-795,-4075,-4466,207,-4075,4470.8,177.35,189.56,744,-5250,-10205,0,0,0,0,0,2.42,180.30,1.25,20,1,3,0,1,0
3782361,-5520,-852,-4090,-4494,150,-4090,4496.5,178.09,190.30,-950,-3266,-4519,0,0,0,0,0,2.65,176.49,1.25,20,1,3,0,1,0
3782461,-5477,-655,-4075,-4451,347,-4075,4464.5,175.54,187.76,986,-2988,-3686,0,0,0,0,0,2.00,168.01,1.25,20,1,3,0,1,0
3782561,-5440,-557,-4127,-4414,445,-4127,4436.4,174.24,186.46,664,-3905,-3678,0,0,0,0,0,3.50,169.65,1.25,20,1,3,0,1,0
3782661,-5422,-530,-4205,-4396,472,-4205,4421.3,173.87,186.09,712,-5560,-8377,0,0,0,0,0,3.40,175.30,1.25,20,1,3,0,1,0
3782761,-5370,-655,-4232,-4344,347,-4232,4357.8,175.43,187.65,2731,-5828,-11203,0,0,0,0,0,2.19,181.04,1.25,20,1,3,0,1,0
3782861,-5502,-900,-4005,-4476,102,-4005,4477.2,178.69,190.91,531,-2506,-3612,0,0,0,0,0,1.75,177.91,1.25,20,1,3,0,1,0
3782961,-5455,-1022,-4097,-4429,-20,-4097,4429.0,180.26,192.47,-716,-3064,-2782,0,0,0,0,0,1.82,179.03,1.25,20,1,3,0,1,0
3783061,-5370,-1205,-4252,-4344,-203,-4252,4348.7,182.68,194.89,-845,-3624,-6038,0,0,0,0,0,1.81,183.02,1.25,20,1,3,0,1,0
3783161,-5400,-915,-4167,-4374,87,-4167,4374.9,178.86,191.08,883,-5842,-7577,0,0,0,0,0,2.25,188.50,1.25,20,1,3,0,1,0
3783261,-5380,-620,-4127,-4354,382,-4127,4370.7,174.99,187.20,2218,-6342,-9675,0,0,0,0,0,2.24,186.16,1.21,21,1,3,0,1,0
3783361,-5342,-780,-4215,-4316,222,-4215,4321.7,177.06,189.27,-1971,-2946,-5162,0,0,0,0,0,3.09,173.24,1.21,21,1,3,0,1,0
3783461,-5390,-467,-4215,-4364,535,-4215,4396.7,173.01,185.23,1619,-3067,-4140,0,0,0,0,0,2.60,173.48,1.21,21,1,3,0,1,0
3783561,-5327,-360,-4290,-4301,642,-4290,4348.7,171.51,183.73,1306,-3949,-4403,0,0,0,0,0,1.72,173.57,1.21,21,1,3,0,1,0
3783661,-5337,-405,-4270,-4311,597,-4270,4352.1,172.12,184.33,661,-5343,-7449,0,0,0,0,0,1.26,198.48,1.21,21,1,3,0,1,0
3783761,-5327,-405,-4225,-4301,597,-4225,4342.2,172.10,184.31,2548,-4923,-9372,0,0,0,0,0,2.75,201.19,1.21,21,1,3,0,1,0
3783861,-5390,-592,-4237,-4364,410,-4237,4383.2,174.63,186.85,883,-3145,-4604,0,0,0,0,0,3.94,180.96,1.21,21,1,3,0,1,0
3783961,-5332,-837,-4372,-4306,165,-4372,4309.2,177.81,190.02,-523,-3313,-4793,0,0,0,0,0,3.65,169.35,1.21,21,1,3,0,1,0
3784061,-5310,-1070,-4442,-4284,-68,-4442,4284.5,180.91,193.13,-331,-3356,-5079,0,0,0,0,0,2.12,165.05,1.21,21,1,3,0,1,0
3784161,-5365,-820,-4387,-4339,182,-4387,4342.8,177.60,189.81,370,-4720,-7373,0,0,0,0,0,1.49,156.29,1.21,21,1,3,0,1,0
3784261,-5252,-447,-4447,-4226,555,-4447,4262.3,172.52,184.73,2565,-6118,-10904,0,0,0,0,0,2.85,165.85,1.21,21,1,3,0,1,0
3784361,-5272,-587,-4485,-4246,415,-4485,4266.2,174.42,186.63,-899,-3415,-6755,0,0,0,0,0,3.91,170.13,1.21,21,1,3,0,1,0
3784461,-5357,-495,-4297,-4331,507,-4297,4360.6,173.32,185.54,1416,-2802,-5748,0,0,0,0,0,3.00,172.81,1.21,21,1,3,0,1,0
3784561,-5492,-525,-3825,-4466,477,-3825,4491.4,173.90,186.12,785,-3117,-4290,0,0,0,0,0,2.64,174.95,1.21,21,1,3,0,1,0
3784661,-5637,-692,-3452,-4611,310,-3452,4621.4,176.15,188.37,-388,-5527,-4453,0,0,0,0,0,2.78,182.86,1.21,21,1,3,0,1,0
3784761,-5615,-665,-3500,-4589,337,-3500,4601.4,175.80,188.02,1040,-6572,-9836,0,0,0,0,0,1.86,183.96,1.21,21,1,3,0,1,0
3784861,-5665,-822,-3280,-4639,180,-3280,4642.5,177.78,189.99,602,-4865,-3033,0,0,0,0,0,0.83,185.05,1.21,21,1,3,0,1,0
3784961,-5760,-1085,-3075,-4734,-83,-3075,4734.7,181.00,193.22,-46,-3770,-4084,0,0,0,0,0,1.77,182.80,1.21,21,1,3,0,1,0
3785061,-5815,-1282,-2875,-4789,-280,-2875,4797.2,183.35,195.56,-1129,-4890,-2369,0,0,0,0,0,2.13,189.56,1.21,21,1,3,0,1,0
3785161,-5765,-950,-2787,-4739,52,-2787,4739.3,179.37,191.59,565,-8659,-5308,0,0,0,0,0,1.21,183.21,1.21,21,1,3,0,1,0
3785261,-5797,-805,-2885,-4771,197,-2885,4775.1,177.64,189.85,-268,-6188,-7977,0,0,0,0,0,1.87,203.21,1.21,21,1,3,0,1,0
3785361,-5740,-872,-2992,-4714,130,-2992,4715.8,178.42,190.64,-2048,-4228,-3683,0,0,0,0,0,2.97,192.04,1.21,21,1,3,0,1,0
3785461,-5700,-680,-3085,-4674,322,-3085,4685.1,176.06,188.28,801,-4525,-3488,0,0,0,0,0,2.52,176.95,1.21,21,1,3,0,1,0
3785561,-5722,-572,-2900,-4696,430,-2900,4715.6,174.77,186.98,479,-5172,-3931,0,0,0,0,0,2.86,179.04,1.21,21,1,3,0,1,0
3785661,-5740,-650,-2807,-4714,352,-2807,4727.1,175.73,187.95,-253,-6974,-4881,0,0,0,0,0,2.25,189.03,1.21,21,1,3,0,1,0
3785761,-5702,-572,-2835,-4676,430,-2835,4695.7,174.75,186.96,2669,-7538,-8124,0,0,0,0,0,1.75,191.88,1.21,21,1,3,0,1,0
3785861,-5755,-685,-2810,-4729,317,-2810,4739.6,176.17,188.38,746,-3970,-2538,0,0,0,0,0,1.29,170.51,1.21,21,1,3,0,1,0
3785961,-5750,-905,-2917,-4724,97,-2917,4725.0,178.82,191.04,50,-4456,-4060,0,0,0,0,0,1.44,167.14,1.21,21,1,3,0,1,0
3786061,-5702,-1012,-2997,-4676,-10,-2997,4676.0,180.12,192.34,-925,-5015,-3358,0,0,0,0,0,1.60,175.78,1.21,21,1,3,0,1,0
3786161,-5670,-760,-2987,-4644,242,-2987,4650.3,177.02,189.23,1129,-8214,-5380,0,0,0,0,0,1.56,189.67,1.21,21,1,3,0,1,0
3786261,-5690,-630,-3025,-4664,372,-3025,4678.8,175.44,187.66,923,-8197,-7164,0,0,0,0,0,2.28,206.26,1.21,21,1,3,0,1,0
3786361,-5770,-692,-2977,-4744,310,-2977,4754.1,176.26,188.48,-1671,-5331,-3235,0,0,0,0,0,1.82,199.25,1.21,21,1,3,0,1,0
3786461,-5717,-545,-3140,-4691,457,-3140,4713.2,174.44,186.65,832,-3961,-4138,0,0,0,0,0,2.52,180.62,1.21,21,1,3,0,1,0
3786561,-5707,-410,-3047,-4681,592,-3047,4718.3,172.79,185.01,732,-4741,-3669,0,0,0,0,0,2.33,171.98,1.21,21,1,3,0,1,0
3786661,-5755,-400,-2965,-4729,602,-2965,4767.2,172.75,184.96,207,-6498,-3989,0,0,0,0,0,2.43,174.83,1.21,21,1,3,0,1,0
3786761,-5775,-380,-2847,-4749,622,-2847,4789.6,172.54,184.75,1823,-9633,-5802,0,0,0,0,0,1.93,194.64,1.21,21,1,3,0,1,0
3786861,-5755,-500,-2862,-4729,502,-2862,4755.6,173.94,186.16,300,-5035,-4175,0,0,0,0,0,1.89,235.23,1.07,22,1,3,0,1,0
3786961,-5775,-607,-3072,-4749,395,-3072,4765.4,175.25,187.46,-412,-5181,-3655,0,0,0,0,0,1.16,217.06,1.21,21,1,3,0,1,0
3787061,-5770,-815,-3205,-4744,187,-3205,4747.7,177.74,189.96,-450,-4548,-3789,0,0,0,0,0,2.10,184.60,1.21,21,1,3,0,1,0
3787161,-5722,-620,-3215,-4696,382,-3215,4711.5,175.35,187.57,1060,-7346,-6014,0,0,0,0,0,2.20,175.04,1.21,21,1,3,0,1,0
3787262,-5765,-322,-3132,-4739,680,-3132,4787.5,171.83,184.05,1900,-9738,-8035,0,0,0,0,0,2.04,168.83,1.21,21,1,3,0,1,0
3787361,-5722,-597,-3262,-4696,405,-3262,4713.4,175.07,187.29,-2933,-4875,-3790,0,0,0,0,0,2.01,177.29,1.21,21,1,3,0,1,0
3787461,-5680,-375,-3322,-4654,627,-3322,4696.0,172.33,184.54,1165,-3798,-3672,0,0,0,0,0,2.09,164.19,1.21,21,1,3,0,1,0
3787561,-5712,-282,-3312,-4686,720,-3312,4741.0,171.26,183.48,1081,-4333,-3841,0,0,0,0,0,2.36,164.76,1.21,21,1,3,0,1,0
3787661,-5637,-350,-3340,-4611,652,-3340,4656.9,171.95,184.17,-1062,-6204,-5318,0,0,0,0,0,2.31,177.08,1.21,21,1,3,0,1,0
3787761,-5632,-350,-3555,-4606,652,-3555,4651.9,171.94,184.16,1603,-7122,-9736,0,0,0,0,0,2.06,192.20,1.21,21,1,3,0,1,0
3787861,-5700,-462,-3350,-4674,540,-3350,4705.1,173.41,185.63,1260,-3477,-4040,0,0,0,0,0,2.17,197.58,1.21,21,1,3,0,1,0
3787961,-5712,-620,-3377,-4686,382,-3377,4701.5,175.34,187.56,-40,-4463,-2892,0,0,0,0,0,1.79,190.23,1.21,21,1,3,0,1,0
3788061,-5722,-935,-3307,-4696,67,-3307,4696.5,179.18,191.40,-1237,-4688,-3864,0,0,0,0,0,1.57,178.68,1.21,21,1,3,0,1,0
3788161,-5792,-660,-3165,-4766,342,-3165,4778.3,175.90,188.11,-58,-8352,-4522,0,0,0,0,0,1.71,182.32,1.21,21,1,3,0,1,0
3788261,-5665,-462,-3052,-4639,540,-3052,4670.3,173.36,185.58,1402,-8370,-7708,0,0,0,0,0,1.71,189.69,1.21,21,1,3,0,1,0
3788361,-5745,-572,-3187,-4719,430,-3187,4738.6,174.79,187.01,-2967,-5407,-2547,0,0,0,0,0,1.70,185.83,1.21,21,1,3,0,1,0
3788461,-5740,-480,-3370,-4714,522,-3370,4742.8,173.68,185.90,479,-3283,-4878,0,0,0,0,0,1.94,181.56,1.21,21,1,3,0,1,0
3788561,-5690,-337,-3327,-4664,665,-3327,4711.2,171.89,184.10,296,-5290,-3346,0,0,0,0,0,1.88,176.21,1.21,21,1,3,0,1,0
3788661,-5707,-412,-3387,-4681,590,-3387,4718.0,172.82,185.03,-103,-6484,-4820,0,0,0,0,0,1.74,178.80,1.21,21,1,3,0,1,0
3788761,-5657,-567,-3625,-4631,435,-3625,4651.4,174.63,186.85,404,-6934,-9814,0,0,0,0,0,1.54,192.56,1.21,21,1,3,0,1,0
3788861,-5740,-692,-3387,-4714,310,-3387,4724.2,176.24,188.45,867,-4388,-3943,0,0,0,0,0,1.03,199.14,1.21,21,1,3,0,1,0
3788961,-5732,-815,-3140,-4706,187,-3140,4709.7,177.72,189.94,-306,-3789,-3097,0,0,0,0,0,2.63,181.55,1.21,21,1,3,0,1,0
3789061,-5815,-987,-2977,-4789,15,-2977,4789.0,179.82,192.04,-1069,-4206,-1761,0,0,0,0,0,3.36,173.50,1.21,21,1,3,0,1,0
3789161,-5755,-687,-3132,-4729,315,-3132,4739.5,176.19,188.41,1308,-8676,-4597,0,0,0,0,0,2.39,171.33,1.21,21,1,3,0,1,0
3789261,-5802,-480,-3145,-4776,522,-3145,4804.4,173.76,185.98,88,-11050,-5890,0,0,0,0,0,2.37,182.79,1.21,21,1,3,0,1,0
3789361,-5707,-567,-2945,-4681,435,-2945,4701.2,174.69,186.91,-1779,-5199,-3384,0,0,0,0,0,3.41,194.31,1.21,21,1,3,0,1,0
3789461,-5760,-552,-3137,-4734,450,-3137,4755.3,174.57,186.79,363,-3792,-2098,0,0,0,0,0,3.17,190.60,1.21,21,1,3,0,1,0
3789561,-5745,-557,-3382,-4719,445,-3382,4739.9,174.61,186.83,1248,-4362,-2629,0,0,0,0,0,2.47,179.00,1.21,21,1,3,0,1,0
3789661,-5675,-820,-3620,-4649,182,-3620,4652.6,177.76,189.97,-607,-5429,-4921,0,0,0,0,0,1.38,175.02,1.21,21,1,3,0,1,0
3789761,-5632,-837,-3940,-4606,165,-3940,4609.0,177.95,190.16,-957,-7297,-6788,0,0,0,0,0,0.65,194.76,1.21,21,1,3,0,1,0
3789861,-5557,-862,-4085,-4531,140,-4085,4533.2,178.23,190.45,1003,-3754,-7223,0,0,0,0,0,2.12,210.88,1.21,21,1,3,0,1,0
3789961,-5385,-905,-4322,-4359,97,-4322,4360.1,178.73,190.94,-1000,-4055,-5392,0,0,0,0,0,2.63,185.85,1.21,21,1,3,0,1,0
3790061,-5477,-977,-4290,-4451,25,-4290,4451.1,179.68,191.89,-135,-3623,-4032,0,0,0,0,0,3.91,178.67,1.21,21,1,3,0,1,0
3790161,-5417,-775,-4405,-4391,227,-4405,4396.9,177.04,189.26,451,-5169,-5480,0,0,0,0,0,3.26,177.90,1.21,21,1,3,0,1,0
3790261,-5235,-417,-4567,-4209,585,-4567,4249.5,172.09,184.30,3433,-6777,-11884,0,0,0,0,0,2.11,171.40,1.21,21,1,3,0,1,0
3790361,-5295,-602,-4600,-4269,400,-4600,4287.7,174.65,186.86,-2065,-3804,-5211,0,0,0,0,0,1.94,171.95,1.21,21,1,3,0,1,0
3790461,-5235,-472,-4620,-4209,530,-4620,4242.2,172.82,185.04,1009,-1943,-5086,0,0,0,0,0,2.42,181.54,1.21,21,1,3,0,1,0
3790561,-5240,-355,-4582,-4214,647,-4582,4263.4,171.27,183.49,1027,-3650,-3386,0,0,0,0,0,2.92,185.77,1.21,21,1,3,0,1,0
3790661,-5305,-520,-4625,-4279,482,-4625,4306.1,173.57,185.79,-430,-4253,-7529,0,0,0,0,0,2.22,186.96,1.21,21,1,3,0,1,0
3790761,-5187,-547,-4762,-4161,455,-4762,4185.8,173.76,185.98,1262,-4648,-11375,0,0,0,0,0,1.97,182.95,1.21,21,1,3,0,1,0
3790861,-5327,-685,-4587,-4301,317,-4587,4312.7,175.78,188.00,1885,-2056,-5913,0,0,0,0,0,1.90,178.79,1.21,21,1,3,0,1,0
3790961,-5315,-790,-4562,-4289,212,-4562,4294.2,177.17,189.39,312,-4634,-2530,0,0,0,0,0,2.82,181.39,1.21,21,1,3,0,1,0
3791061,-5325,-1195,-4692,-4299,-193,-4692,4303.3,182.57,194.79,-972,-2812,-5601,0,0,0,0,0,3.05,180.22,1.21,21,1,3,0,1,0
3791161,-5315,-1017,-4722,-4289,-15,-4722,4289.0,180.20,192.42,153,-5236,-6879,0,0,0,0,0,2.15,183.40,1.21,21,1,3,0,1,0
3791261,-5277,-552,-4707,-4251,450,-4707,4274.8,173.96,186.17,2472,-6901,-10217,0,0,0,0,0,1.60,177.13,1.21,21,1,3,0,1,0
3791361,-5315,-900,-4665,-4289,102,-4665,4290.2,178.64,190.85,-2357,-2962,-5339,0,0,0,0,0,1.44,176.64,1.21,21,1,3,0,1,0
3791461,-5365,-815,-4750,-4339,187,-4750,4343.0,177.53,189.75,31,-1697,-5128,0,0,0,0,0,1.73,179.45,1.21,21,1,3,0,1,0
3791561,-5252,-442,-4657,-4226,560,-4657,4262.9,172.45,184.67,827,-3734,-3405,0,0,0,0,0,1.38,180.27,1.21,21,1,3,0,1,0
3791661,-5375,-635,-4685,-4349,367,-4685,4364.5,175.18,187.39,-150,-4314,-6651,0,0,0,0,0,1.93,186.36,1.21,21,1,3,0,1,0
3791761,-5267,-650,-4865,-4241,352,-4865,4255.6,175.26,187.47,287,-5540,-9822,0,0,0,0,0,1.67,183.14,1.21,21,1,3,0,1,0
3791861,-5325,-737,-4725,-4299,265,-4725,4307.2,176.47,188.69,1457,-1782,-7733,0,0,0,0,0,2.97,181.42,1.21,21,1,3,0,1,0
3791961,-5375,-827,-4632,-4349,175,-4632,4352.5,177.70,189.91,-560,-4732,-2213,0,0,0,0,0,2.64,178.03,1.21,21,1,3,0,1,0
3792061,-5325,-1090,-4690,-4299,-88,-4690,4299.9,181.17,193.39,-622,-2790,-5899,0,0,0,0,0,2.14,179.15,1.21,21,1,3,0,1,0
3792161,-5487,-852,-4615,-4461,150,-4615,4463.5,178.07,190.29,423,-5060,-5982,0,0,0,0,0,1.91,176.62,1.21,21,1,3,0,1,0
3792261,-5380,-452,-4625,-4354,550,-4625,4388.6,172.80,185.02,3146,-7237,-9656,0,0,0,0,0,2.06,177.14,1.21,21,1,3,0,1,0
3792361,-5375,-727,-4582,-4349,275,-4582,4357.7,176.38,188.60,-1645,-2965,-6201,0,0,0,0,0,1.64,171.13,1.21,21,1,3,0,1,0
3792461,-5385,-665,-4712,-4359,337,-4712,4372.0,175.58,187.80,-124,-1492,-5600,0,0,0,0,0,2.22,171.99,1.21,21,1,3,0,1,0
3792561,-5375,-342,-4657,-4349,660,-4657,4398.8,171.37,183.59,1564,-3905,-3167,0,0,0,0,0,2.74,181.94,1.21,21,1,3,0,1,0
3792661,-5422,-485,-4697,-4396,517,-4697,4426.3,173.29,185.51,111,-3879,-6840,0,0,0,0,0,2.01,186.23,1.21,21,1,3,0,1,0
3792761,-5295,-607,-4870,-4269,395,-4870,4287.2,174.71,186.93,-343,-6345,-8881,0,0,0,0,0,2.26,189.18,1.21,21,1,3,0,1,0
3792861,-5417,-785,-4730,-4391,217,-4730,4396.4,177.17,189.39,1279,-2086,-8394,0,0,0,0,0,1.03,186.83,1.21,21,1,3,0,1,0
3792961,-5440,-887,-4540,-4414,115,-4540,4415.5,178.51,190.72,-627,-4992,-2612,0,0,0,0,0,1.78,181.25,1.21,21,1,3,0,1,0
3793061,-5535,-1085,-4530,-4509,-83,-4530,4509.8,181.05,193.27,-400,-2871,-5282,0,0,0,0,0,2.65,172.78,1.21,21,1,3,0,1,0
3793161,-5512,-842,-4452,-4486,160,-4452,4488.9,177.96,190.17,440,-4816,-4493,0,0,0,0,0,2.99,172.18,1.21,21,1,3,0,1,0
3793261,-5492,-490,-4480,-4466,512,-4480,4495.3,173.46,185.68,1109,-6928,-9076,0,0,0,0,0,2.43,192.14,1.21,21,1,3,0,1,0
3793361,-5520,-485,-4485,-4494,517,-4485,4523.6,173.44,185.65,-779,-3322,-6888,0,0,0,0,0,2.55,190.70,1.21,21,1,3,0,1,0
3793461,-5432,-552,-4702,-4406,450,-4702,4428.9,174.17,186.38,370,-1972,-7078,0,0,0,0,0,2.56,182.53,1.21,21,1,3,0,1,0
3793561,-5432,-355,-4610,-4406,647,-4610,4453.3,171.65,183.86,1790,-3949,-4125,0,0,0,0,0,2.43,180.85,1.21,21,1,3,0,1,0
3793661,-5557,-510,-4382,-4531,492,-4382,4557.6,173.80,186.02,112,-3183,-4342,0,0,0,0,0,2.24,184.52,1.21,21,1,3,0,1,0
3793761,-5507,-525,-4405,-4481,477,-4405,4506.3,173.92,186.14,-132,-7210,-7819,0,0,0,0,0,2.46,185.71,1.21,21,1,3,0,1,0
3793861,-5502,-707,-4517,-4476,295,-4517,4485.7,176.23,188.45,782,-4082,-10970,0,0,0,0,0,2.84,187.31,1.21,21,1,3,0,1,0
3793961,-5577,-867,-4362,-4551,135,-4362,4553.0,178.30,190.52,-219,-5861,-6011,0,0,0,0,0,2.88,185.49,1.21,21,1,3,0,1,0
3794061,-5722,-1080,-3965,-4696,-78,-3965,4696.6,180.95,193.17,-259,-3301,-4050,0,0,0,0,0,2.87,181.59,1.21,21,1,3,0,1,0
3794161,-5887,-1030,-3410,-4861,-28,-3410,4861.1,180.33,192.55,65,-4243,-2056,0,0,0,0,0,2.46,173.68,1.21,21,1,3,0,1,0
3794261,-5850,-670,-3435,-4824,332,-3435,4835.4,176.06,188.28,-90,-9215,-4129,0,0,0,0,0,2.07,176.93,1.21,21,1,3,0,1,0
3794361,-5807,-707,-3685,-4781,295,-3685,4790.1,176.47,188.69,-1217,-5428,-7159,0,0,0,0,0,2.03,179.07,1.21,21,1,3,0,1,0
3794461,-5755,-770,-3772,-4729,232,-3772,4734.7,177.19,189.41,-317,-2789,-5376,0,0,0,0,0,2.91,177.95,1.21,21,1,3,0,1,0
3794561,-5760,-545,-3740,-4734,457,-3740,4756.0,174.49,186.70,1066,-4561,-3701,0,0,0,0,0,3.09,174.84,1.21,21,1,3,0,1,0
3794661,-5797,-645,-3410,-4771,357,-3410,4784.3,175.72,187.94,-327,-4786,-4144,0,0,0,0,0,3.00,180.12,1.21,21,1,3,0,1,0
3794761,-5887,-635,-3365,-4861,367,-3365,4874.8,175.68,187.90,-784,-9479,-5688,0,0,0,0,0,2.44,185.68,1.21,21,1,3,0,1,0
3794861,-5852,-727,-3372,-4826,275,-3372,4833.8,176.74,188.95,963,-5286,-6623,0,0,0,0,0,2.72,183.33,1.21,21,1,3,0,1,0
3794961,-5887,-697,-3340,-4861,305,-3340,4870.6,176.41,188.63,269,-6291,-3509,0,0,0,0,0,2.53,177.07,1.21,21,1,3,0,1,0
3795061,-5942,-900,-3090,-4916,102,-3090,4917.1,178.81,191.03,-235,-4021,-3521,0,0,0,0,0,2.44,179.40,1.21,21,1,3,0,1,0
3795161,-5962,-842,-3047,-4936,160,-3047,4938.6,178.14,190.36,95,-6991,-2816,0,0,0,0,0,2.42,178.28,1.21,21,1,3,0,1,0
3795261,-5852,-545,-3242,-4826,457,-3242,4847.6,174.59,186.81,2393,-10302,-6824,0,0,0,0,0,2.30,183.01,1.21,21,1,3,0,1,0
3795361,-5910,-742,-3305,-4884,260,-3305,4890.9,176.95,189.17,-2620,-5216,-4863,0,0,0,0,0,2.89,188.78,1.21,21,1,3,0,1,0
3795461,-5920,-770,-3467,-4894,232,-3467,4899.5,177.29,189.50,-311,-2911,-5100,0,0,0,0,0,3.51,178.50,1.21,21,1,3,0,1,0
3795561,-5835,-500,-3490,-4809,502,-3490,4835.1,174.04,186.26,784,-4848,-2968,0,0,0,0,0,2.94,164.12,1.21,21,1,3,0,1,0
3795661,-5840,-447,-3500,-4814,555,-3500,4845.9,173.42,185.64,161,-5636,-4182,0,0,0,0,0,1.59,163.56,1.21,21,1,3,0,1,0
3795761,-5770,-552,-3615,-4744,450,-3615,4765.3,174.58,186.80,127,-9169,-7127,0,0,0,0,0,1.21,174.03,1.21,21,1,3,0,1,0
3795861,-5895,-815,-3630,-4869,187,-3630,4872.6,177.80,190.02,305,-4151,-8031,0,0,0,0,0,1.82,187.50,1.21,21,1,3,0,1,0
3795961,-5815,-635,-3512,-4789,367,-3512,4803.0,175.62,187.83,993,-6547,-2124,0,0,0,0,0,2.86,179.07,1.21,21,1,3,0,1,0
3796061,-5830,-1022,-3555,-4804,-20,-3555,4804.0,180.24,192.45,-486,-3467,-3018,0,0,0,0,0,3.45,172.42,1.21,21,1,3,0,1,0
3796161,-5840,-960,-3740,-4814,42,-3740,4814.2,179.50,191.72,-667,-6231,-4099,0,0,0,0,0,3.09,168.76,1.21,21,1,3,0,1,0
3796261,-5740,-665,-3935,-4714,337,-3935,4726.0,175.91,188.13,1070,-8719,-8985,0,0,0,0,0,2.36,166.31,1.21,21,1,3,0,1,0
3796361,-5685,-775,-3902,-4659,227,-3902,4664.5,177.21,189.43,-1016,-4172,-6754,0,0,0,0,0,2.60,168.89,1.21,21,1,3,0,1,0
3796461,-5775,-1022,-3927,-4749,-20,-3927,4749.0,180.24,192.46,-503,-2857,-6205,0,0,0,0,0,3.11,176.94,1.21,21,1,3,0,1,0
3796561,-5802,-692,-3592,-4776,310,-3592,4786.1,176.29,188.50,970,-4100,-2658,0,0,0,0,0,3.01,175.16,1.21,21,1,3,0,1,0
3796661,-5887,-717,-3435,-4861,285,-3435,4869.3,176.64,188.86,-615,-4356,-2993,0,0,0,0,0,2.63,173.52,1.21,21,1,3,0,1,0
3796761,-5850,-620,-3680,-4824,382,-3680,4839.1,175.47,187.69,-142,-9878,-7181,0,0,0,0,0,2.33,174.18,1.21,21,1,3,0,1,0
3796861,-5850,-842,-3722,-4824,160,-3722,4826.7,178.10,190.32,1089,-4047,-8748,0,0,0,0,0,2.46,178.76,1.27,20,1,3,0,1,0
3796961,-5867,-752,-3560,-4841,250,-3560,4847.5,177.04,189.26,115,-6392,-2081,0,0,0,0,0,2.34,176.41,1.27,20,1,3,0,1,0
3797061,-5937,-1045,-3382,-4911,-43,-3382,4911.2,180.50,192.72,-183,-3933,-3691,0,0,0,0,0,2.37,173.47,1.21,21,1,3,0,1,0
3797161,-5952,-982,-3305,-4926,20,-3305,4926.0,179.77,191.98,-296,-6597,-3823,0,0,0,0,0,2.61,178.94,1.21,21,1,3,0,1,0
3797261,-5932,-680,-3285,-4906,322,-3285,4916.6,176.24,188.46,1679,-10064,-6060,0,0,0,0,0,2.47,177.56,1.21,21,1,3,0,1,0
3797361,-5925,-910,-3327,-4899,92,-3327,4899.9,178.92,191.14,-1878,-5025,-4533,0,0,0,0,0,2.96,178.38,1.21,21,1,3,0,1,0
3797461,-5910,-950,-3430,-4884,52,-3430,4884.3,179.39,191.61,665,-3280,-5499,0,0,0,0,0,3.49,179.03,1.21,21,1,3,0,1,0
3797561,-5895,-702,-3312,-4869,300,-3312,4878.2,176.47,188.69,1192,-4567,-1361,0,0,0,0,0,3.26,175.64,1.21,21,1,3,0,1,0
3797661,-5857,-882,-3475,-4831,120,-3475,4832.5,178.58,190.79,-164,-4106,-4731,0,0,0,0,0,2.31,174.12,1.21,21,1,3,0,1,0
3797761,-5760,-1095,-4107,-4734,-93,-4107,4734.9,181.13,193.34,-2011,-8299,-7535,0,0,0,0,0,2.14,184.41,1.21,21,1,3,0,1,0
3797861,-5675,-967,-4367,-4649,35,-4367,4649.1,179.57,191.78,1218,-3342,-6712,0,0,0,0,0,1.80,193.07,1.21,21,1,3,0,1,0
3797961,-5502,-987,-4490,-4476,15,-4490,4476.0,179.81,192.02,1084,-4936,-6228,0,0,0,0,0,2.46,191.23,1.21,21,1,3,0,1,0
3798061,-5475,-1305,-4527,-4449,-303,-4527,4459.3,183.90,196.11,-1258,-2738,-5603,0,0,0,0,0,1.98,190.70,1.21,21,1,3,0,1,0
3798161,-5552,-1080,-4415,-4526,-78,-4415,4526.7,180.99,193.20,153,-4998,-5951,0,0,0,0,0,1.09,196.97,1.21,21,1,3,0,1,0
3798261,-5540,-617,-4362,-4514,385,-4362,4530.4,175.13,187.34,2117,-6828,-8734,0,0,0,0,0,2.12,191.87,1.21,21,1,3,0,1,0
3798361,-5530,-665,-4497,-4504,337,-4497,4516.6,175.72,187.94,-1545,-4451,-5651,0,0,0,0,0,2.11,189.43,1.21,21,1,3,0,1,0
3798461,-5440,-645,-4632,-4414,357,-4632,4428.4,175.38,187.59,-158,-996,-6895,0,0,0,0,0,2.70,193.48,1.21,21,1,3,0,1,0
3798561,-5400,-260,-4522,-4374,742,-4522,4436.5,170.37,182.59,1759,-4382,-2926,0,0,0,0,0,2.12,183.58,1.21,21,1,3,0,1,0
3798661,-5390,-282,-4490,-4364,720,-4490,4423.0,170.63,182.85,462,-3840,-5918,0,0,0,0,0,2.11,185.49,1.21,21,1,3,0,1,0
3798761,-5337,-380,-4657,-4311,622,-4657,4355.6,171.79,184.01,262,-7109,-9259,0,0,0,0,0,2.21,188.92,1.21,21,1,3,0,1,0
3798861,-5370,-592,-4572,-4344,410,-4572,4363.3,174.61,186.82,1940,-1901,-9459,0,0,0,0,0,1.64,180.08,1.21,21,1,3,0,1,0
3798961,-5445,-587,-4530,-4419,415,-4530,4438.4,174.63,186.85,565,-5590,-2583,0,0,0,0,0,2.43,187.41,1.21,21,1,3,0,1,0
3799061,-5460,-992,-4427,-4434,10,-4427,4434.0,179.87,192.09,-574,-2682,-5404,0,0,0,0,0,3.05,185.50,1.21,21,1,3,0,1,0
3799161,-5487,-1017,-4362,-4461,-15,-4362,4461.0,180.19,192.41,-990,-3964,-4832,0,0,0,0,0,3.49,185.78,1.21,21,1,3,0,1,0
3799261,-5440,-412,-4400,-4414,590,-4400,4453.3,172.39,184.60,2626,-7543,-9805,0,0,0,0,0,2.99,178.33,1.21,21,1,3,0,1,0
3799361,-5502,-577,-4335,-4476,425,-4335,4496.1,174.58,186.79,-1209,-3082,-5968,0,0,0,0,0,2.57,178.89,1.21,21,1,3,0,1,0
3799461,-5402,-505,-4530,-4376,497,-4530,4404.1,173.52,185.74,-457,-1612,-7231,0,0,0,0,0,2.87,187.89,1.21,21,1,3,0,1,0
3799561,-5402,-47,-4372,-4376,955,-4372,4479.0,167.69,179.91,1772,-3888,-2686,0,0,0,0,0,2.13,167.65,1.21,21,1,3,0,1,0
3799661,-5482,-245,-4312,-4456,757,-4312,4519.8,170.36,182.57,401,-3164,-5410,0,0,0,0,0,2.43,161.65,1.21,21,1,3,0,1,0
3799761,-5352,-317,-4502,-4326,685,-4502,4379.9,171.00,183.22,-525,-7567,-7487,0,0,0,0,0,2.46,176.97,1.21,21,1,3,0,1,0
3799861,-5320,-395,-4567,-4294,607,-4567,4336.7,171.95,184.17,1908,-2823,-10955,0,0,0,0,0,2.38,174.20,1.21,21,1,3,0,1,0
3799961,-5422,-520,-4437,-4396,482,-4437,4422.3,173.74,185.96,-201,-4659,-2618,0,0,0,0,0,2.85,165.73,1.21,21,1,3,0,1,0
3800061,-5437,-712,-4465,-4411,290,-4465,4420.5,176.24,188.45,-115,-2981,-4520,0,0,0,0,0,3.03,171.46,1.21,21,1,3,0,1,0
3800161,-5440,-557,-4425,-4414,445,-4425,4436.4,174.24,186.46,111,-4652,-5376,0,0,0,0,0,2.33,178.53,1.21,21,1,3,0,1,0
3800261,-5365,-215,-4427,-4339,787,-4427,4409.8,169.72,181.94,2918,-8418,-9527,0,0,0,0,0,1.91,173.12,1.21,21,1,3,0,1,0
3800361,-5315,-545,-4530,-4289,457,-4530,4313.3,173.92,186.13,-1453,-2896,-7766,0,0,0,0,0,2.79,180.69,1.21,21,1,3,0,1,0
3800461,-5342,-442,-4560,-4316,560,-4560,4352.2,172.61,184.82,-1294,-729,-4998,0,0,0,0,0,3.41,187.91,1.21,21,1,3,0,1,0
3800561,-5315,0,-4420,-4289,1002,-4420,4404.5,166.85,179.07,2477,-3801,-3512,0,0,0,0,0,2.35,171.48,1.21,21,1,3,0,1,0
3800661,-5305,-62,-4432,-4279,940,-4432,4381.0,167.61,179.83,1101,-4490,-6374,0,0,0,0,0,1.58,166.24,1.21,21,1,3,0,1,0
3800761,-5325,-95,-4512,-4299,907,-4512,4393.6,168.09,180.30,252,-7621,-7717,0,0,0,0,0,2.13,176.13,1.21,21,1,3,0,1,0
3800861,-5327,-437,-4560,-4301,565,-4560,4338.0,172.52,184.73,1437,-2550,-10329,0,0,0,0,0,2.85,175.95,1.21,21,1,3,0,1,0
3800961,-5482,-545,-4382,-4456,457,-4382,4479.4,174.14,186.36,132,-5028,-4528,0,0,0,0,0,3.04,174.40,1.21,21,1,3,0,1,0
3801061,-5595,-820,-4130,-4569,182,-4130,4572.6,177.72,189.94,208,-2790,-4695,0,0,0,0,0,2.55,175.59,1.21,21,1,3,0,1,0
3801161,-5647,-847,-3760,-4621,155,-3760,4623.6,178.08,190.30,-430,-4935,-4248,0,0,0,0,0,1.96,178.70,1.21,21,1,3,0,1,0
3801261,-5717,-452,-3610,-4691,550,-3610,4723.1,173.31,185.53,1597,-9135,-5331,0,0,0,0,0,1.71,176.62,1.21,21,1,3,0,1,0
3801361,-5745,-665,-3555,-4719,337,-3555,4731.0,175.92,188.13,-1910,-4558,-6095,0,0,0,0,0,1.27,201.67,1.21,21,1,3,0,1,0
3801461,-5712,-755,-3657,-4686,247,-3657,4692.5,176.98,189.20,-929,-2607,-5141,0,0,0,0,0,1.09,216.82,1.21,21,1,3,0,1,0
3801561,-5665,-395,-3540,-4639,607,-3540,4678.5,172.55,184.76,1230,-4575,-3650,0,0,0,0,0,0.94,0.00,1.21,21,1,3,0,1,0
3801661,-5777,-462,-3197,-4751,540,-3197,4781.6,173.52,185.73,3,-5093,-4176,0,0,0,0,0,1.00,0.00,1.21,21,1,3,0,1,0
3801761,-5787,-410,-3237,-4761,592,-3237,4797.7,172.91,185.13,-893,-9331,-5343,0,0,0,0,0,2.40,196.53,1.21,21,1,3,0,1,0
3801861,-5750,-380,-3305,-4724,622,-3305,4764.8,172.50,184.72,1244,-5424,-8164,0,0,0,0,0,1.42,186.38,1.21,21,1,3,0,1,0
3801961,-5732,-337,-3420,-4706,665,-3420,4752.8,171.96,184.17,701,-6355,-2789,0,0,0,0,0,0.71,0.00,1.21,21,1,3,0,1,0
3802061,-5775,-665,-3410,-4749,337,-3410,4760.9,175.94,188.16,-261,-3573,-3378,0,0,0,0,0,2.13,0.00,1.21,21,1,3,0,1,0
3802161,-5722,-625,-3475,-4696,377,-3475,4711.1,175.41,187.63,-417,-5766,-3649,0,0,0,0,0,1.95,165.59,1.21,21,1,3,0,1,0
3802261,-5627,-312,-3587,-4601,690,-3587,4652.5,171.47,183.69,1581,-9000,-7624,0,0,0,0,0,1.37,181.56,1.21,21,1,3,0,1,0
3802361,-5722,-500,-3572,-4696,502,-3572,4722.8,173.90,186.11,-1490,-4432,-7499,0,0,0,0,0,1.17,0.00,1.21,21,1,3,0,1,0
3802461,-5675,-597,-3702,-4649,405,-3702,4666.6,175.02,187.24,-1817,-2986,-5588,0,0,0,0,0,1.35,163.88,1.21,21,1,3,0,1,0
3802561,-5712,-345,-3620,-4686,657,-3620,4731.8,172.02,184.24,1186,-4064,-2999,0,0,0,0,0,1.95,153.90,1.21,21,1,3,0,1,0
3802661,-5665,-245,-3522,-4639,757,-3522,4700.4,170.73,182.95,-68,-4768,-4206,0,0,0,0,0,2.08,151.12,1.21,21,1,3,0,1,0
3802761,-5620,-172,-3582,-4594,830,-3582,4668.4,169.76,181.98,-456,-8484,-6247,0,0,0,0,0,1.43,157.26,1.21,21,1,3,0,1,0
3802861,-5652,-375,-3745,-4626,627,-3745,4668.3,172.28,184.50,1137,-4607,-10673,0,0,0,0,0,0.95,168.53,1.21,21,1,3,0,1,0
3802961,-5665,-297,-3625,-4639,705,-3625,4692.3,171.36,183.57,820,-5811,-1900,0,0,0,0,0,1.10,174.36,1.21,21,1,3,0,1,0
3803061,-5707,-640,-3602,-4681,362,-3602,4695.0,175.58,187.79,-441,-3278,-4026,0,0,0,0,0,1.03,171.36,1.21,21,1,3,0,1,0
3803161,-5722,-607,-3587,-4696,395,-3587,4712.6,175.19,187.41,-636,-5660,-4082,0,0,0,0,0,1.23,165.66,1.21,21,1,3,0,1,0
3803261,-5662,-255,-3597,-4636,747,-3597,4695.8,170.85,183.06,1293,-8789,-6702,0,0,0,0,0,0.98,171.92,1.21,21,1,3,0,1,0
3803361,-5652,-437,-3662,-4626,565,-3662,4660.4,173.04,185.25,-1167,-4804,-7882,0,0,0,0,0,2.20,196.60,1.21,21,1,3,0,1,0
3803461,-5615,-582,-3717,-4589,420,-3717,4608.2,174.77,186.99,-1426,-2101,-4902,0,0,0,0,0,3.36,181.79,1.21,21,1,3,0,1,0
3803561,-5587,-177,-3680,-4561,825,-3680,4635.0,169.75,181.96,2037,-4612,-2460,0,0,0,0,0,1.82,164.33,1.21,21,1,3,0,1,0
3803661,-5595,-292,-3842,-4569,710,-3842,4623.8,171.17,183.38,-98,-4906,-4864,0,0,0,0,0,0.90,161.19,1.21,21,1,3,0,1,0
3803761,-5590,-557,-3955,-4564,445,-3955,4585.6,174.43,186.65,-2227,-7560,-8474,0,0,0,0,0,0.39,162.82,1.21,21,1,3,0,1,0
3803861,-5647,-617,-3972,-4621,385,-3972,4637.0,175.24,187.45,319,-4118,-10036,0,0,0,0,0,0.73,0.00,1.21,21,1,3,0,1,0
3803961,-5627,-480,-3745,-4601,522,-3745,4630.5,173.53,185.74,968,-5497,-2239,0,0,0,0,0,0.67,0.00,1.21,21,1,3,0,1,0
3804061,-5662,-810,-3700,-4636,192,-3700,4640.0,177.63,189.84,-513,-3682,-4047,0,0,0,0,0,1.33,180.22,1.21,21,1,3,0,1,0
3804161,-5707,-815,-3635,-4681,187,-3635,4684.7,177.71,189.93,-255,-5694,-4453,0,0,0,0,0,1.44,174.36,1.21,21,1,3,0,1,0
3804261,-5690,-655,-3610,-4664,347,-3610,4676.9,175.75,187.96,-378,-8293,-7739,0,0,0,0,0,1.77,166.89,1.21,21,1,3,0,1,0
3804361,-5750,-847,-3470,-4724,155,-3470,4726.5,178.12,190.34,-643,-3822,-7552,0,0,0,0,0,2.04,180.68,1.21,21,1,3,0,1,0
3804461,-5755,-1030,-3527,-4729,-28,-3527,4729.1,180.34,192.56,-1648,-3182,-4619,0,0,0,0,0,2.04,188.23,1.21,21,1,3,0,1,0
3804561,-5775,-660,-3527,-4749,342,-3527,4761.3,175.88,188.10,1017,-4504,-3625,0,0,0,0,0,3.27,180.82,1.21,21,1,3,0,1,0
3804661,-5750,-685,-3480,-4724,317,-3480,4734.6,176.16,188.38,-157,-4772,-4863,0,0,0,0,0,1.98,177.47,1.21,21,1,3,0,1,0
3804761,-5737,-645,-3387,-4711,357,-3387,4724.5,175.67,187.88,-1138,-7474,-6609,0,0,0,0,0,1.47,172.02,1.21,21,1,3,0,1,0
3804861,-5782,-755,-3305,-4756,247,-3305,4762.4,177.03,189.24,513,-5820,-7771,0,0,0,0,0,0.62,169.61,1.21,21,1,3,0,1,0
3804961,-5737,-620,-3230,-4711,382,-3230,4726.5,175.36,187.58,1201,-6038,-2709,0,0,0,0,0,1.34,176.87,1.21,21,1,3,0,1,0
3805061,-5787,-872,-3280,-4761,130,-3280,4762.8,178.44,190.65,-231,-3453,-3931,0,0,0,0,0,2.20,180.21,1.21,21,1,3,0,1,0
3805161,-5792,-1050,-3252,-4766,-48,-3252,4766.2,180.58,192.79,-845,-5092,-3624,0,0,0,0,0,3.03,176.29,1.21,21,1,3,0,1,0
3805261,-5760,-785,-3345,-4734,217,-3345,4739.0,177.38,189.59,1384,-8659,-6336,0,0,0,0,0,2.20,172.48,1.21,21,1,3,0,1,0
3805361,-5775,-1027,-3350,-4749,-25,-3350,4749.1,180.30,192.52,-254,-5386,-8800,0,0,0,0,0,1.52,172.71,1.21,21,1,3,0,1,0
3805461,-5775,-1147,-3502,-4749,-145,-3502,4751.2,181.75,193.97,-2374,-4113,-4620,0,0,0,0,0,2.24,178.78,1.21,21,1,3,0,1,0
3805561,-5727,-755,-3532,-4701,247,-3532,4707.5,176.99,189.21,2021,-4447,-3835,0,0,0,0,0,3.27,185.64,1.21,21,1,3,0,1,0
3805661,-5777,-780,-3430,-4751,222,-3430,4756.2,177.32,189.54,307,-4581,-3844,0,0,0,0,0,2.99,186.68,1.21,21,1,3,0,1,0
3805761,-5770,-752,-3462,-4744,250,-3462,4750.6,176.98,189.20,-445,-8170,-6282,0,0,0,0,0,2.56,180.56,1.21,21,1,3,0,1,0
3805861,-5750,-977,-3662,-4724,25,-3662,4724.1,179.70,191.91,1245,-5204,-10595,0,0,0,0,0,4.40,174.58,1.21,21,1,3,0,1,0
3805961,-5782,-930,-3572,-4756,72,-3572,4756.5,179.13,191.35,340,-4889,-2210,0,0,0,0,0,3.89,174.55,1.21,21,1,3,0,1,0
3806061,-5737,-1257,-3605,-4711,-255,-3605,4717.9,183.10,195.31,-662,-3245,-3969,0,0,0,0,0,2.82,169.11,1.21,21,1,3,0,1,0
3806161,-5770,-1310,-3700,-4744,-308,-3700,4754.0,183.71,195.93,-994,-5222,-4587,0,0,0,0,0,0.77,166.93,1.21,21,1,3,0,1,0
3806261,-5792,-905,-3765,-4766,97,-3765,4767.0,178.83,191.05,1249,-8962,-8414,0,0,0,0,0,0.77,172.83,1.21,21,1,3,0,1,0
3806361,-5702,-1050,-3760,-4676,-48,-3760,4676.2,180.59,192.80,-1031,-4404,-8431,0,0,0,0,0,1.63,176.78,1.21,21,1,3,0,1,0
3806461,-5777,-1225,-3717,-4751,-223,-3717,4756.2,182.69,194.90,-2008,-3555,-3664,0,0,0,0,0,2.00,171.83,1.21,21,1,3,0,1,0
3806561,-5797,-1045,-3577,-4771,-43,-3577,4771.2,180.52,192.73,353,-3382,-4299,0,0,0,0,0,2.54,181.43,1.21,21,1,3,0,1,0
3806661,-5850,-900,-3522,-4824,102,-3522,4825.1,178.79,191.00,-2,-4810,-4471,0,0,0,0,0,2.94,186.33,1.21,21,1,3,0,1,0
3806761,-5900,-832,-3502,-4874,170,-3502,4877.0,178.00,190.22,510,-6574,-6640,0,0,0,0,0,2.65,187.24,1.21,21,1,3,0,1,0
3806861,-5872,-742,-3630,-4846,260,-3630,4853.0,176.93,189.15,132,-6289,-8374,0,0,0,0,0,2.72,181.10,1.21,21,1,3,0,1,0
3806961,-5895,-950,-3430,-4869,52,-3430,4869.3,179.39,191.60,1162,-2707,-5030,0,0,0,0,0,3.23,174.58,1.21,21,1,3,0,1,0
3807061,-5910,-1007,-3425,-4884,-5,-3425,4884.0,180.06,192.27,411,-5180,-4579,0,0,0,0,0,2.44,172.54,1.21,21,1,3,0,1,0
3807161,-5905,-1200,-3300,-4879,-198,-3300,4883.0,182.32,194.54,-1,-4107,-3624,0,0,0,0,0,2.17,178.86,1.21,21,1,3,0,1,0
3807261,-5942,-1070,-3177,-4916,-68,-3177,4916.5,180.79,193.01,221,-5311,-3391,0,0,0,0,0,0.93,185.06,1.21,21,1,3,0,1,0
3807361,-5952,-977,-3030,-4926,25,-3030,4926.1,179.71,191.93,236,-6476,-5158,0,0,0,0,0,0.87,186.06,1.21,21,1,3,0,1,0
3807461,-5857,-582,-2587,-4831,420,-2587,4849.2,175.03,187.25,-716,-9508,-3043,0,0,0,0,0,1.31,195.61,1.21,21,1,3,0,1,0
3807561,-5985,-665,-2685,-4959,337,-2685,4970.4,176.11,188.33,-997,-3073,-3290,0,0,0,0,0,2.39,203.04,1.21,21,1,3,0,1,0
3807661,-5925,-525,-3237,-4899,477,-3237,4922.2,174.44,186.66,1496,-7706,-6433,0,0,0,0,0,3.23,193.81,1.21,21,1,3,0,1,0
3807761,-5900,-727,-3275,-4874,275,-3275,4881.8,176.77,188.99,258,-3800,-3095,0,0,0,0,0,2.56,187.78,1.21,21,1,3,0,1,0
3807861,-5850,-847,-3150,-4824,155,-3150,4826.5,178.16,190.38,-452,-4655,-5172,0,0,0,0,0,1.90,180.55,1.21,21,1,3,0,1,0
3807961,-5887,-930,-3172,-4861,72,-3172,4861.5,179.15,191.37,-140,-7662,-6365,0,0,0,0,0,1.90,179.21,1.21,21,1,3,0,1,0
3808061,-5787,-982,-3447,-4761,20,-3447,4761.0,179.76,191.98,528,-6313,-6670,0,0,0,0,0,2.28,182.86,1.21,21,1,3,0,1,0
3808161,-5852,-1190,-3430,-4826,-188,-3430,4829.7,182.23,194.45,-1433,-3412,-3880,0,0,0,0,0,2.59,183.61,1.21,21,1,3,0,1,0
3808261,-5812,-1190,-3312,-4786,-188,-3312,4789.7,182.25,194.47,-278,-4239,-3960,0,0,0,0,0,2.44,180.57,1.21,21,1,3,0,1,0
3808361,-5852,-1007,-3072,-4826,-5,-3072,4826.0,180.06,192.28,600,-7122,-5031,0,0,0,0,0,2.52,178.49,1.21,21,1,3,0,1,0
3808461,-5755,-977,-3192,-4729,25,-3192,4729.1,179.70,191.91,278,-7327,-9708,0,0,0,0,0,2.30,178.15,1.21,21,1,3,0,1,0
3808561,-5702,-1185,-3355,-4676,-183,-3355,4679.6,182.24,194.46,-3465,-3913,-3534,0,0,0,0,0,2.33,182.48,1.21,21,1,3,0,1,0
3808661,-5627,-1027,-3327,-4601,-25,-3327,4601.1,180.31,192.53,1398,-3925,-3957,0,0,0,0,0,3.16,174.84,1.21,21,1,3,0,1,0
3808761,-5610,-800,-3192,-4584,202,-3192,4588.4,177.48,189.69,556,-4552,-3931,0,0,0,0,0,2.92,170.14,1.21,21,1,3,0,1,0
3808861,-5577,-940,-3165,-4551,62,-3165,4551.4,179.22,191.44,-263,-7352,-5633,0,0,0,0,0,2.28,177.40,1.21,21,1,3,0,1,0
3808961,-5507,-1097,-3360,-4481,-95,-3360,4482.0,181.21,193.43,-122,-5703,-9329,0,0,0,0,0,1.24,188.85,1.21,21,1,3,0,1,0
3809061,-5525,-997,-3290,-4499,5,-3290,4499.0,179.94,192.15,212,-5420,-3430,0,0,0,0,0,2.20,174.77,1.21,21,1,3,0,1,0
3809161,-5535,-1165,-3327,-4509,-163,-3327,4511.9,182.07,194.29,-496,-3883,-4036,0,0,0,0,0,2.04,173.16,1.21,21,1,3,0,1,0
3809261,-5515,-915,-3312,-4489,87,-3312,4489.8,178.89,191.11,-862,-4858,-3083,0,0,0,0,0,1.77,178.55,1.21,21,1,3,0,1,0
3809361,-5512,-780,-3452,-4486,222,-3452,4491.5,177.17,189.38,1178,-7242,-7647,0,0,0,0,0,2.14,174.04,1.21,21,1,3,0,1,0
3809461,-5475,-645,-3387,-4449,357,-3387,4463.3,175.41,187.63,217,-6187,-7282,0,0,0,0,0,1.54,177.05,1.21,21,1,3,0,1,0
3809561,-5562,-795,-3405,-4536,207,-3405,4540.7,177.39,189.60,-1817,-3257,-4231,0,0,0,0,0,2.69,180.11,1.21,21,1,3,0,1,0
3809661,-5487,-442,-3467,-4461,560,-3467,4496.0,172.84,185.06,2372,-4721,-3032,0,0,0,0,0,3.68,172.83,1.21,21,1,3,0,1,0
3809761,-5587,-525,-3462,-4561,477,-3462,4585.9,174.03,186.25,547,-4928,-4339,0,0,0,0,0,2.89,170.06,1.21,21,1,3,0,1,0
3809861,-5487,-732,-3540,-4461,270,-3540,4469.2,176.54,188.75,-1721,-7290,-6805,0,0,0,0,0,1.87,182.56,1.21,21,1,3,0,1,0
3809961,-5512,-820,-3615,-4486,182,-3615,4489.7,177.68,189.89,1253,-5744,-10001,0,0,0,0,0,1.71,195.07,1.21,21,1,3,0,1,0
3810062,-5577,-800,-3475,-4551,202,-3475,4555.5,177.46,189.67,1292,-5641,-2457,0,0,0,0,0,3.41,178.78,1.21,21,1,3,0,1,0
3810161,-5625,-1080,-3470,-4599,-78,-3470,4599.7,180.97,193.19,-588,-3689,-4556,0,0,0,0,0,2.49,182.96,1.21,21,1,3,0,1,0
3810261,-5700,-1175,-3370,-4674,-173,-3370,4677.2,182.12,194.34,-917,-5042,-2750,0,0,0,0,0,2.97,180.73,1.21,21,1,3,0,1,0
3810361,-5662,-977,-3430,-4636,25,-3430,4636.1,179.69,191.91,-142,-7403,-6900,0,0,0,0,0,2.49,176.57,1.21,21,1,3,0,1,0
3810461,-5690,-977,-3340,-4664,25,-3340,4664.1,179.69,191.91,-362,-6093,-7491,0,0,0,0,0,1.86,182.90,1.21,21,1,3,0,1,0
3810561,-5665,-1147,-3457,-4639,-145,-3457,4641.3,181.79,194.01,-1996,-3276,-5094,0,0,0,0,0,2.27,184.11,1.21,21,1,3,0,1,0
3810661,-5637,-737,-3377,-4611,265,-3377,4618.6,176.71,188.93,2281,-4873,-2735,0,0,0,0,0,3.01,177.75,1.21,21,1,3,0,1,0
3810761,-5732,-847,-3457,-4706,155,-3457,4708.6,178.11,190.33,-142,-4376,-4560,0,0,0,0,0,2.68,167.72,1.21,21,1,3,0,1,0
3810861,-5732,-882,-3437,-4706,120,-3437,4707.5,178.54,190.76,-2256,-7036,-5317,0,0,0,0,0,1.94,176.07,1.21,21,1,3,0,1,0
3810961,-5662,-827,-3700,-4636,175,-3700,4639.3,177.84,190.05,2050,-6722,-10557,0,0,0,0,0,1.58,186.68,1.21,21,1,3,0,1,0
3811061,-5700,-842,-3545,-4674,160,-3545,4676.7,178.04,190.26,1428,-4081,-2167,0,0,0,0,0,1.33,168.69,1.21,21,1,3,0,1,0
3811161,-5670,-1132,-3700,-4644,-130,-3700,4645.8,181.60,193.82,-556,-3931,-4879,0,0,0,0,0,2.56,162.70,1.21,21,1,3,0,1,0
3811261,-5760,-1320,-3462,-4734,-318,-3462,4744.7,183.84,196.06,-1037,-5078,-3924,0,0,0,0,0,2.66,169.97,1.21,21,1,3,0,1,0
3811361,-5825,-1022,-3257,-4799,-20,-3257,4799.0,180.24,192.45,673,-7340,-5161,0,0,0,0,0,2.12,179.68,1.21,21,1,3,0,1,0
3811461,-5765,-1007,-3280,-4739,-5,-3280,4739.0,180.06,192.28,174,-8052,-7579,0,0,0,0,0,2.24,186.35,1.21,21,1,3,0,1,0
3811561,-5782,-1147,-3405,-4756,-145,-3405,4758.2,181.75,193.96,-2647,-4885,-4588,0,0,0,0,0,2.35,175.36,1.21,21,1,3,0,1,0
3811661,-5770,-645,-3372,-4744,357,-3372,4757.4,175.70,187.91,1501,-4076,-3196,0,0,0,0,0,3.32,166.07,1.21,21,1,3,0,1,0
3811761,-5782,-525,-3272,-4756,477,-3272,4779.9,174.27,186.49,211,-4516,-3694,0,0,0,0,0,3.74,163.20,1.21,21,1,3,0,1,0
3811861,-5770,-545,-3257,-4744,457,-3257,4766.0,174.50,186.71,-138,-7692,-5674,0,0,0,0,0,2.02,167.87,1.21,21,1,3,0,1,0
3811961,-5765,-572,-3340,-4739,430,-3340,4758.5,174.82,187.03,2222,-7239,-8638,0,0,0,0,0,1.48,178.43,1.21,21,1,3,0,1,0
3812061,-5797,-795,-3290,-4771,207,-3290,4775.5,177.52,189.73,885,-3810,-1645,0,0,0,0,0,1.83,183.76,1.21,21,1,3,0,1,0
3812161,-5782,-905,-3430,-4756,97,-3430,4757.0,178.83,191.05,-148,-3948,-4150,0,0,0,0,0,2.96,190.39,1.21,21,1,3,0,1,0
3812261,-5777,-1090,-3545,-4751,-88,-3545,4751.8,181.06,193.28,-969,-4725,-3325,0,0,0,0,0,2.02,185.67,1.21,21,1,3,0,1,0
3812361,-5732,-815,-3475,-4706,187,-3475,4709.7,177.72,189.94,1126,-7960,-6442,0,0,0,0,0,1.68,185.74,1.21,21,1,3,0,1,0
3812461,-5775,-747,-3447,-4749,255,-3447,4755.8,176.93,189.14,901,-6889,-8307,0,0,0,0,0,2.50,189.58,1.21,21,1,3,0,1,0
3812561,-5712,-820,-3652,-4686,182,-3652,4689.5,177.78,189.99,-1285,-4404,-5219,0,0,0,0,0,2.76,186.87,1.21,21,1,3,0,1,0
3812661,-5647,-530,-3755,-4621,472,-3755,4645.0,174.17,186.38,2235,-4773,-3411,0,0,0,0,0,2.91,176.00,1.21,21,1,3,0,1,0
3812761,-5690,-640,-3685,-4664,362,-3685,4678.0,175.56,187.78,548,-4314,-3662,0,0,0,0,0,2.19,176.53,1.21,21,1,3,0,1,0
3812861,-5717,-810,-3787,-4691,192,-3787,4694.9,177.66,189.87,-628,-5956,-6384,0,0,0,0,0,2.00,193.61,1.33,20,1,3,0,1,0
3812961,-5627,-915,-4015,-4601,87,-4015,4601.8,178.92,191.13,914,-5034,-10201,0,0,0,0,0,2.09,208.70,1.33,20,1,3,0,1,0
3813061,-5637,-862,-4057,-4611,140,-4057,4613.1,178.26,190.48,691,-5201,-3693,0,0,0,0,0,2.18,200.54,1.33,20,1,3,0,1,0
3813161,-5647,-1027,-4097,-4621,-25,-4097,4621.1,180.31,192.53,-278,-3464,-4601,0,0,0,0,0,2.38,183.56,1.33,20,1,3,0,1,0
3813261,-5675,-1127,-4025,-4649,-125,-4025,4650.7,181.54,193.76,-587,-4217,-4051,0,0,0,0,0,2.46,174.76,1.33,20,1,3,0,1,0
3813361,-5670,-805,-3917,-4644,197,-3917,4648.2,177.57,189.79,1108,-6760,-7075,0,0,0,0,0,2.00,179.72,1.33,20,1,3,0,1,0
3813461,-5665,-832,-3917,-4639,170,-3917,4642.1,177.90,190.12,675,-6778,-8760,0,0,0,0,0,2.14,182.59,1.33,20,1,3,0,1,0
3813561,-5615,-1012,-3965,-4589,-10,-3965,4589.0,180.12,192.34,-1877,-3128,-4828,0,0,0,0,0,2.90,190.71,1.33,20,1,3,0,1,0
3813661,-5717,-785,-3927,-4691,217,-3927,4696.0,177.35,189.57,1082,-4323,-3147,0,0,0,0,0,3.15,184.75,1.33,20,1,3,0,1,0
3813761,-5662,-702,-3917,-4636,300,-3917,4645.7,176.30,188.51,223,-4318,-4691,0,0,0,0,0,2.87,172.26,1.33,20,1,3,0,1,0
3813861,-5680,-795,-3880,-4654,207,-3880,4658.6,177.45,189.67,-987,-7369,-6109,0,0,0,0,0,2.39,179.87,1.33,20,1,3,0,1,0
3813961,-5662,-675,-4052,-4636,327,-4052,4647.5,175.97,188.18,2400,-6546,-10512,0,0,0,0,0,2.25,180.41,1.33,20,1,3,0,1,0
3814061,-5627,-722,-4032,-4601,280,-4032,4609.5,176.52,188.73,658,-4032,-2383,0,0,0,0,0,2.40,176.47,1.33,20,1,3,0,1,0
3814161,-5670,-1012,-4090,-4644,-10,-4090,4644.0,180.12,192.34,147,-3685,-4955,0,0,0,0,0,2.86,176.23,1.33,20,1,3,0,1,0
3814261,-5712,-1050,-4057,-4686,-48,-4057,4686.2,180.59,192.80,-655,-4736,-4161,0,0,0,0,0,2.88,178.30,1.33,20,1,3,0,1,0
3814361,-5707,-862,-3902,-4681,140,-3902,4683.1,178.29,190.50,1144,-7469,-7036,0,0,0,0,0,2.70,179.57,1.33,20,1,3,0,1,0
3814461,-5792,-832,-3880,-4766,170,-3880,4769.0,177.96,190.17,52,-6153,-8726,0,0,0,0,0,2.65,186.61,1.33,20,1,3,0,1,0
3814561,-5765,-1012,-3965,-4739,-10,-3965,4739.0,180.12,192.34,-1818,-3956,-4938,0,0,0,0,0,3.13,190.15,1.33,20,1,3,0,1,0
3814661,-5765,-702,-3902,-4739,300,-3902,4748.5,176.38,188.59,1037,-3376,-3599,0,0,0,0,0,3.05,183.81,1.33,20,1,3,0,1,0
3814761,-5815,-665,-3842,-4789,337,-3842,4800.8,175.97,188.19,-195,-4395,-4734,0,0,0,0,0,2.99,179.40,1.33,20,1,3,0,1,0
3814861,-5890,-557,-3772,-4864,445,-3772,4884.3,174.77,186.99,-654,-7852,-6107,0,0,0,0,0,2.11,177.94,1.33,20,1,3,0,1,0
3814961,-5835,-630,-3917,-4809,372,-3917,4823.4,175.58,187.79,2618,-6480,-11591,0,0,0,0,0,1.30,168.91,1.33,20,1,3,0,1,0
3815061,-5932,-712,-3602,-4906,290,-3602,4914.6,176.62,188.83,580,-3924,-1296,0,0,0,0,0,2.09,166.78,1.33,20,1,3,0,1,0
3815161,-5905,-842,-3675,-4879,160,-3675,4881.6,178.12,190.34,170,-3927,-4063,0,0,0,0,0,2.92,174.44,1.33,20,1,3,0,1,0
3815261,-5915,-950,-3685,-4889,52,-3685,4889.3,179.39,191.61,-851,-5095,-3982,0,0,0,0,0,2.24,177.48,1.33,20,1,3,0,1,0
3815361,-5925,-680,-3577,-4899,322,-3577,4909.6,176.24,188.46,997,-7911,-6146,0,0,0,0,0,2.50,185.19,1.33,20,1,3,0,1,0
3815461,-5900,-630,-3602,-4874,372,-3602,4888.2,175.64,187.85,608,-6576,-8899,0,0,0,0,0,1.41,198.45,1.33,20,1,3,0,1,0
3815561,-5942,-857,-3667,-4916,145,-3667,4918.1,178.31,190.53,-1593,-3677,-5086,0,0,0,0,0,2.71,192.56,1.21,21,1,3,0,1,0
3815661,-5895,-597,-3605,-4869,405,-3605,4885.8,175.25,187.46,1350,-3807,-2951,0,0,0,0,0,3.04,180.00,1.21,21,1,3,0,1,0
3815761,-5867,-545,-3605,-4841,457,-3605,4862.5,174.61,186.82,47,-4937,-4325,0,0,0,0,0,2.07,177.36,1.21,21,1,3,0,1,0
3815861,-5872,-510,-3647,-4846,492,-3647,4870.9,174.20,186.42,-620,-7677,-5695,0,0,0,0,0,2.52,182.39,1.21,21,1,3,0,1,0
3815961,-5920,-670,-3772,-4894,332,-3772,4905.2,176.12,188.34,2138,-5980,-10958,0,0,0,0,0,1.75,192.82,1.21,21,1,3,0,1,0
3816061,-5857,-665,-3680,-4831,337,-3680,4842.7,176.01,188.23,684,-4973,-2296,0,0,0,0,0,1.49,198.40,1.21,21,1,3,0,1,0
3816162,-5867,-862,-3782,-4841,140,-3782,4843.0,178.34,190.56,-596,-3216,-4057,0,0,0,0,0,1.69,192.79,1.21,21,1,3,0,1,0
3816261,-5905,-1002,-3800,-4879,0,-3800,4879.0,180.00,192.22,-1430,-4619,-4370,0,0,0,0,0,2.42,185.43,1.21,21,1,3,0,1,0
3816361,-5862,-597,-3635,-4836,405,-3635,4852.9,175.21,187.43,1137,-8466,-7743,0,0,0,0,0,2.29,180.45,1.33,20,1,3,0,1,0
3816461,-5970,-665,-3397,-4944,337,-3397,4955.5,176.10,188.32,188,-5218,-7738,0,0,0,0,0,2.43,186.22,1.21,21,1,3,0,1,0
3816561,-5952,-987,-3452,-4926,15,-3452,4926.0,179.83,192.04,-1882,-2957,-5349,0,0,0,0,0,2.31,183.34,1.21,21,1,3,0,1,0
3816661,-5915,-687,-3355,-4889,315,-3355,4899.1,176.31,188.53,787,-4031,-2543,0,0,0,0,0,2.25,173.83,1.21,21,1,3,0,1,0
3816761,-6060,-607,-3172,-5034,395,-3172,5049.5,175.51,187.73,69,-5306,-4641,0,0,0,0,0,1.98,175.44,1.21,21,1,3,0,1,0
3816861,-5975,-525,-3312,-4949,477,-3312,4971.9,174.49,186.71,243,-9222,-8882,0,0,0,0,0,2.04,186.33,1.21,21,1,3,0,1,0
3816961,-6022,-722,-3075,-4996,280,-3075,5003.8,176.79,189.01,1407,-5775,-7802,0,0,0,0,0,1.33,197.28,1.21,21,1,3,0,1,0
3817061,-6112,-780,-2847,-5086,222,-2847,5090.8,177.50,189.72,108,-6079,-1803,0,0,0,0,0,1.74,190.35,1.21,21,1,3,0,1,0
3817161,-6092,-1122,-2727,-5066,-120,-2727,5067.4,181.36,193.57,-85,-3883,-1449,0,0,0,0,0,2.40,176.46,1.21,21,1,3,0,1,0
3817261,-6107,-1215,-2690,-5081,-213,-2690,5085.5,182.40,194.62,-1377,-5776,-1891,0,0,0,0,0,2.14,176.35,1.21,21,1,3,0,1,0
3817361,-6115,-800,-2852,-5089,202,-2852,5093.0,177.73,189.94,737,-9827,-6424,0,0,0,0,0,2.12,193.02,1.21,21,1,3,0,1,0
3817461,-6045,-810,-2742,-5019,192,-2742,5022.7,177.81,190.03,-1087,-5941,-5106,0,0,0,0,0,4.11,184.96,1.21,21,1,3,0,1,0
3817561,-6027,-887,-3062,-5001,115,-3062,5002.3,178.68,190.90,-622,-3979,-5080,0,0,0,0,0,3.32,178.79,1.21,21,1,3,0,1,0
3817661,-5932,-660,-3225,-4906,342,-3225,4917.9,176.01,188.23,1306,-4683,-3375,0,0,0,0,0,2.73,175.34,1.21,21,1,3,0,1,0
3817761,-5900,-770,-3252,-4874,232,-3252,4879.5,177.27,189.49,-163,-4484,-4050,0,0,0,0,0,1.58,186.70,1.21,21,1,3,0,1,0
3817861,-5825,-675,-3382,-4799,327,-3382,4810.1,176.10,188.32,-164,-9128,-6366,0,0,0,0,0,0.70,208.64,1.21,21,1,3,0,1,0
3817961,-5770,-827,-3545,-4744,175,-3545,4747.2,177.89,190.10,1552,-5774,-8328,0,0,0,0,0,0.34,0.00,1.21,21,1,3,0,1,0
3818061,-5700,-827,-3615,-4674,175,-3615,4677.3,177.86,190.07,897,-5372,-4379,0,0,0,0,0,1.73,160.52,1.21,21,1,3,0,1,0
3818161,-5665,-1165,-3767,-4639,-163,-3767,4641.9,182.01,194.23,-431,-3334,-4502,0,0,0,0,0,2.03,162.37,1.21,21,1,3,0,1,0
3818261,-5600,-1147,-3867,-4574,-145,-3867,4576.3,181.82,194.03,-1235,-5409,-4537,0,0,0,0,0,2.00,180.00,1.21,21,1,3,0,1,0
3818361,-5572,-882,-3810,-4546,120,-3810,4547.6,178.49,190.70,1561,-8539,-8071,0,0,0,0,0,2.17,194.15,1.21,21,1,3,0,1,0
3818461,-5642,-815,-3760,-4616,187,-3760,4619.8,177.68,189.90,-1107,-4426,-6637,0,0,0,0,0,1.53,186.62,1.21,21,1,3,0,1,0
3818561,-5562,-837,-3922,-4536,165,-3922,4539.0,177.92,190.13,-1118,-2648,-5213,0,0,0,0,0,1.29,171.74,1.21,21,1,3,0,1,0
3818661,-5482,-452,-3960,-4456,550,-3960,4489.8,172.96,185.18,1462,-4201,-3212,0,0,0,0,0,1.26,163.74,1.21,21,1,3,0,1,0
3818761,-5652,-355,-3965,-4626,647,-3965,4671.0,172.04,184.25,576,-4485,-4952,0,0,0,0,0,0.65,0.00,1.21,21,1,3,0,1,0
3818861,-5600,-380,-4005,-4574,622,-4005,4616.1,172.26,184.47,-579,-7549,-6666,0,0,0,0,0,0.78,0.00,1.21,21,1,3,0,1,0
3818961,-5600,-342,-4085,-4574,660,-4085,4621.4,171.79,184.01,2592,-5425,-10053,0,0,0,0,0,1.34,0.00,1.21,21,1,3,0,1,0
3819061,-5595,-370,-4015,-4569,632,-4015,4612.5,172.12,184.34,735,-4850,-2094,0,0,0,0,0,1.36,0.00,1.21,21,1,3,0,1,0
3819161,-5690,-607,-4042,-4664,395,-4042,4680.7,175.16,187.38,101,-3488,-5142,0,0,0,0,0,1.61,161.99,1.21,21,1,3,0,1,0
3819261,-5737,-800,-4020,-4711,202,-4020,4715.3,177.54,189.76,-1404,-4686,-4905,0,0,0,0,0,1.85,165.45,1.21,21,1,3,0,1,0
3819361,-5670,-390,-3977,-4644,612,-3977,4684.2,172.49,184.71,709,-8332,-6267,0,0,0,0,0,2.29,185.43,1.21,21,1,3,0,1,0
3819461,-5802,-277,-3907,-4776,725,-3907,4830.7,171.37,183.58,448,-6009,-8569,0,0,0,0,0,2.08,190.54,1.21,21,1,3,0,1,0
3819561,-5797,-495,-3992,-4771,507,-3992,4797.9,173.93,186.15,-1410,-3519,-4705,0,0,0,0,0,0.28,0.00,1.21,21,1,3,0,1,0
3819661,-5792,-287,-4057,-4766,715,-4057,4819.3,171.47,183.68,857,-3402,-3050,0,0,0,0,0,1.29,0.00,1.21,21,1,3,0,1,0
3819761,-5807,-322,-4032,-4781,680,-4032,4829.1,171.91,184.12,172,-4251,-4471,0,0,0,0,0,1.66,0.00,1.21,21,1,3,0,1,0
3819861,-5850,-327,-3940,-4824,675,-3940,4871.0,172.03,184.25,-159,-7280,-7594,0,0,0,0,0,1.08,0.00,1.21,21,1,3,0,1,0
3819961,-5947,-535,-3932,-4921,467,-3932,4943.1,174.58,186.80,405,-5934,-8473,0,0,0,0,0,0.81,0.00,1.21,21,1,3,0,1,0
3820061,-5942,-490,-3797,-4916,512,-3797,4942.6,174.05,186.27,593,-5710,-3374,0,0,0,0,0,0.98,0.00,1.21,21,1,3,0,1,0
3820161,-5965,-895,-3880,-4939,107,-3880,4940.2,178.76,190.98,-1085,-3448,-4510,0,0,0,0,0,0.97,0.00,1.21,21,1,3,0,1,0
3820261,-6075,-822,-3675,-5049,180,-3675,5052.2,177.96,190.17,-1352,-4359,-4475,0,0,0,0,0,1.61,161.74,1.21,21,1,3,0,1,0
3820361,-6055,-385,-3647,-5029,617,-3647,5066.7,173.01,185.22,234,-7202,-6309,0,0,0,0,0,1.16,0.00,1.21,21,1,3,0,1,0
3820461,-5975,-210,-3405,-4949,792,-3405,5012.0,170.91,183.12,1581,-6607,-8193,0,0,0,0,0,0.18,0.00,1.21,21,1,3,0,1,0
3820561,-6002,-477,-3502,-4976,525,-3502,5003.6,173.98,186.19,-1234,-3733,-4990,0,0,0,0,0,1.86,0.00,1.21,21,1,3,0,1,0
3820661,-6050,-245,-3430,-5024,757,-3430,5080.7,171.43,183.65,759,-4287,-2353,0,0,0,0,0,1.94,164.34,1.21,21,1,3,0,1,0
3820761,-6075,-350,-3307,-5049,652,-3307,5090.9,172.64,184.86,-133,-4438,-4400,0,0,0,0,0,2.73,164.21,1.21,21,1,3,0,1,0
3820861,-6045,-337,-3202,-5019,665,-3202,5062.9,172.45,184.67,-1550,-8012,-5449,0,0,0,0,0,1.79,154.28,1.21,21,1,3,0,1,0
3820961,-6070,-292,-3340,-5044,710,-3340,5093.7,171.99,184.20,1663,-6922,-9299,0,0,0,0,0,2.67,185.15,1.21,21,1,3,0,1,0
3821061,-6045,-307,-3247,-5019,695,-3247,5066.9,172.12,184.33,740,-4419,-2000,0,0,0,0,0,2.52,186.23,1.21,21,1,3,0,1,0
3821161,-6022,-467,-3452,-4996,535,-3452,5024.6,173.89,186.10,367,-4793,-4667,0,0,0,0,0,1.65,174.63,1.21,21,1,3,0,1,0
3821261,-6040,-552,-3435,-5014,450,-3435,5034.2,174.87,187.09,-974,-4843,-3773,0,0,0,0,0,0.69,79.55,1.21,21,1,3,0,1,0
3821361,-6065,-442,-3377,-5039,560,-3377,5070.0,173.66,185.87,854,-7051,-6031,0,0,0,0,0,1.01,37.59,1.21,21,1,3,0,1,0
3821461,-6045,-220,-3262,-5019,782,-3262,5079.6,171.14,183.36,470,-7697,-7180,0,0,0,0,0,1.29,207.70,1.21,21,1,3,0,1,0
3821561,-6075,-505,-3327,-5049,497,-3327,5073.4,174.38,186.59,-1933,-4799,-4624,0,0,0,0,0,1.89,198.78,1.21,21,1,3,0,1,0
3821661,-6037,-355,-3332,-5011,647,-3332,5052.6,172.64,184.86,890,-4031,-3861,0,0,0,0,0,1.92,179.25,1.21,21,1,3,0,1,0
3821761,-6022,-220,-3107,-4996,782,-3107,5056.8,171.10,183.32,239,-4620,-4152,0,0,0,0,0,1.66,163.40,1.21,21,1,3,0,1,0
3821861,-6027,-327,-2895,-5001,675,-2895,5046.3,172.31,184.53,-256,-6939,-5438,0,0,0,0,0,1.32,150.10,1.21,21,1,3,0,1,0
3821961,-6087,-417,-3042,-5061,585,-3042,5094.7,173.41,185.62,338,-7887,-7781,0,0,0,0,0,1.39,178.58,1.21,21,1,3,0,1,0
3822061,-6130,-505,-2932,-5104,497,-2932,5128.1,174.44,186.65,850,-4586,-3324,0,0,0,0,0,1.70,191.23,1.21,21,1,3,0,1,0
3822161,-6130,-685,-2922,-5104,317,-2922,5113.8,176.45,188.66,-1,-4191,-3827,0,0,0,0,0,1.85,195.77,1.21,21,1,3,0,1,0
3822261,-6115,-925,-2880,-5089,77,-2880,5089.6,179.13,191.35,-1309,-4764,-2869,0,0,0,0,0,1.89,193.38,1.21,21,1,3,0,1,0
3822361,-6120,-697,-2890,-5094,305,-2890,5103.1,176.57,188.79,574,-8209,-6319,0,0,0,0,0,2.00,196.43,1.21,21,1,3,0,1,0
3822461,-6040,-400,-2792,-5014,602,-2792,5050.0,173.15,185.37,686,-8066,-6499,0,0,0,0,0,2.22,199.08,1.24,20,1,3,0,1,0
3822561,-6045,-500,-2840,-5019,502,-2840,5044.0,174.29,186.50,-1940,-6233,-3118,0,0,0,0,0,2.42,194.14,1.24,20,1,3,0,1,0
3822661,-5937,-490,-2937,-4911,512,-2937,4937.6,174.05,186.26,98,-4561,-2906,0,0,0,0,0,2.96,174.18,1.24,20,1,3,0,1,0
# rows_queued=446 rows_written=446 rows_dropped=0
# duration_ms=44760
# i2c_end_ops=59214 i2c_end_fails=20
