# cc-radar field sample
# firmware=v26.08.01 build=1785625163
# rtc=2026-08-01 23:59:40
# label=shake-100hz
# uptime_ms=3531501
# compass_cal_x=-1026 compass_cal_y=-1002 compass_cal_z=0 calibrated=1
# declination_deg=12.216 declination_valid=1
# h0=unknown
# zoom=3
# accel_enabled=1 accel_addr=0x6B gyro_enabled=1
# mag_scale_lsb_per_uT=120 accel_lsb_per_g=8192 gyro_lsb_per_dps=128
# nominal_rate_hz=100
# i2c_start_ops=38207 i2c_start_fails=12
ms,mx,my,mz,cx,cy,cz,h_mag,heading_mag,heading_true,ax,ay,az,gx,gy,gz,lat,lon,speed_kn,course,hdop,sats,fix_valid,zoom,mag_overflow,accel_valid,gyro_valid
3531516,-5627,-385,-3535,-4601,617,-3535,4642.2,172.36,184.58,19,-5674,-4584,-1298,531,-2375,34.1351584,-118.1457447,0.97,0.00,1.37,17,1,3,0,1,1
3531526,-5627,-385,-3535,-4601,617,-3535,4642.2,172.36,184.58,259,-5646,-4605,-980,680,-2042,34.1351584,-118.1457447,0.97,0.00,1.37,17,1,3,0,1,1
3531536,-5627,-385,-3535,-4601,617,-3535,4642.2,172.36,184.58,416,-5597,-4588,-712,645,-1704,34.1351584,-118.1457447,0.97,0.00,1.37,17,1,3,0,1,1
3531546,-5627,-385,-3535,-4601,617,-3535,4642.2,172.36,184.58,407,-5480,-4505,-236,439,-1088,34.1351584,-118.1457447,0.97,0.00,1.37,17,1,3,0,1,1
3531556,-5627,-385,-3535,-4601,617,-3535,4642.2,172.36,184.58,293,-5399,-4414,77,369,-792,34.1351584,-118.1457447,0.97,0.00,1.37,17,1,3,0,1,1
3531566,-5812,-390,-3832,-4786,612,-3832,4825.0,172.71,184.93,177,-5312,-4312,301,380,-656,34.1351578,-118.1457448,0.51,0.00,1.37,17,1,3,0,1,1
3531576,-5812,-390,-3832,-4786,612,-3832,4825.0,172.71,184.93,84,-5253,-4218,271,348,-560,34.1351578,-118.1457448,0.51,0.00,1.37,17,1,3,0,1,1
3531586,-5812,-390,-3832,-4786,612,-3832,4825.0,172.71,184.93,22,-5292,-4160,-285,281,-490,34.1351578,-118.1457448,0.51,0.00,1.37,17,1,3,0,1,1
3531596,-5812,-390,-3832,-4786,612,-3832,4825.0,172.71,184.93,10,-5365,-4176,-623,221,-412,34.1351578,-118.1457448,0.51,0.00,1.37,17,1,3,0,1,1
3531606,-5812,-390,-3832,-4786,612,-3832,4825.0,172.71,184.93,12,-5435,-4221,-846,148,-195,34.1351578,-118.1457448,0.51,0.00,1.37,17,1,3,0,1,1
3531616,-5812,-390,-3832,-4786,612,-3832,4825.0,172.71,184.93,-8,-5504,-4283,-1013,159,17,34.1351578,-118.1457448,0.51,0.00,1.37,17,1,3,0,1,1
3531626,-5812,-390,-3832,-4786,612,-3832,4825.0,172.71,184.93,-67,-5595,-4383,-1156,259,246,34.1351578,-118.1457448,0.51,0.00,1.37,17,1,3,0,1,1
3531636,-5812,-390,-3832,-4786,612,-3832,4825.0,172.71,184.93,-108,-5577,-4452,-1059,331,480,34.1351578,-118.1457448,0.51,0.00,1.37,17,1,3,0,1,1
3531646,-5812,-390,-3832,-4786,612,-3832,4825.0,172.71,184.93,-122,-5514,-4514,-782,466,627,34.1351578,-118.1457448,0.51,0.00,1.37,17,1,3,0,1,1
3531656,-5812,-390,-3832,-4786,612,-3832,4825.0,172.71,184.93,-114,-5460,-4563,-535,583,548,34.1351578,-118.1457448,0.51,0.00,1.37,17,1,3,0,1,1
3531666,-5830,-495,-3740,-4804,507,-3740,4830.7,173.98,186.19,-56,-5462,-4631,-162,579,352,34.1351575,-118.1457448,0.67,0.00,1.37,17,1,3,0,1,1
3531676,-5830,-495,-3740,-4804,507,-3740,4830.7,173.98,186.19,-3,-5526,-4654,75,517,354,34.1351575,-118.1457448,0.67,0.00,1.37,17,1,3,0,1,1
3531686,-5830,-495,-3740,-4804,507,-3740,4830.7,173.98,186.19,16,-5612,-4641,40,362,432,34.1351575,-118.1457448,0.67,0.00,1.37,17,1,3,0,1,1
3531696,-5830,-495,-3740,-4804,507,-3740,4830.7,173.98,186.19,6,-5670,-4616,-279,197,543,34.1351575,-118.1457448,0.67,0.00,1.37,17,1,3,0,1,1
3531706,-5830,-495,-3740,-4804,507,-3740,4830.7,173.98,186.19,-11,-5647,-4640,-897,157,750,34.1351575,-118.1457448,0.67,0.00,1.37,17,1,3,0,1,1
3531716,-5830,-495,-3740,-4804,507,-3740,4830.7,173.98,186.19,-26,-5595,-4715,-1225,251,826,34.1351575,-118.1457448,0.67,0.00,1.37,17,1,3,0,1,1
3531726,-5830,-495,-3740,-4804,507,-3740,4830.7,173.98,186.19,-42,-5572,-4844,-1484,366,692,34.1351575,-118.1457448,0.67,0.00,1.37,17,1,3,0,1,1
3531736,-5830,-495,-3740,-4804,507,-3740,4830.7,173.98,186.19,-58,-5607,-5002,-1723,534,351,34.1351575,-118.1457448,0.67,0.00,1.37,17,1,3,0,1,1
3531746,-5830,-495,-3740,-4804,507,-3740,4830.7,173.98,186.19,-62,-5803,-5303,-1810,1032,-302,34.1351575,-118.1457448,0.67,0.00,1.37,17,1,3,0,1,1
3531756,-5830,-495,-3740,-4804,507,-3740,4830.7,173.98,186.19,-26,-6027,-5552,-1492,1295,-686,34.1351575,-118.1457448,0.67,0.00,1.37,17,1,3,0,1,1
3531766,-5707,-567,-3750,-4681,435,-3750,4701.2,174.69,186.91,79,-6273,-5801,-853,1441,-938,34.1351572,-118.1457447,0.63,0.00,1.36,18,1,3,0,1,1
3531776,-5707,-567,-3750,-4681,435,-3750,4701.2,174.69,186.91,240,-6560,-5985,-6,1504,-985,34.1351572,-118.1457447,0.63,0.00,1.36,18,1,3,0,1,1
3531786,-5707,-567,-3750,-4681,435,-3750,4701.2,174.69,186.91,453,-7095,-6021,1449,1251,-871,34.1351572,-118.1457447,0.63,0.00,1.36,18,1,3,0,1,1
3531796,-5707,-567,-3750,-4681,435,-3750,4701.2,174.69,186.91,494,-7273,-5843,2321,996,-565,34.1351572,-118.1457447,0.63,0.00,1.36,18,1,3,0,1,1
3531806,-5707,-567,-3750,-4681,435,-3750,4701.2,174.69,186.91,492,-7252,-5607,2633,919,156,34.1351572,-118.1457447,0.63,0.00,1.36,18,1,3,0,1,1
3531816,-5707,-567,-3750,-4681,435,-3750,4701.2,174.69,186.91,495,-7115,-5445,2343,943,1039,34.1351572,-118.1457447,0.63,0.00,1.36,18,1,3,0,1,1
3531826,-5707,-567,-3750,-4681,435,-3750,4701.2,174.69,186.91,459,-6737,-5385,1419,1013,1820,34.1351572,-118.1457447,0.63,0.00,1.36,18,1,3,0,1,1
3531836,-5707,-567,-3750,-4681,435,-3750,4701.2,174.69,186.91,397,-6350,-5411,651,1110,2114,34.1351572,-118.1457447,0.63,0.00,1.36,18,1,3,0,1,1
3531846,-5707,-567,-3750,-4681,435,-3750,4701.2,174.69,186.91,341,-6020,-5472,-71,1094,2276,34.1351572,-118.1457447,0.63,0.00,1.36,18,1,3,0,1,1
3531856,-5707,-567,-3750,-4681,435,-3750,4701.2,174.69,186.91,297,-5820,-5549,-694,1006,2216,34.1351572,-118.1457447,0.63,0.00,1.36,18,1,3,0,1,1
3531866,-5895,-360,-3767,-4869,642,-3767,4911.1,172.49,184.70,199,-5697,-5658,-1656,980,1882,34.1351572,-118.1457447,0.63,0.00,1.36,18,1,3,0,1,1
3531876,-5895,-360,-3767,-4869,642,-3767,4911.1,172.49,184.70,137,-5703,-5747,-2219,1107,1682,34.1351572,-118.1457447,0.63,0.00,1.36,18,1,3,0,1,1
3531886,-5895,-360,-3767,-4869,642,-3767,4911.1,172.49,184.70,121,-5742,-5959,-2691,1522,1670,34.1351572,-118.1457447,0.63,0.00,1.36,18,1,3,0,1,1
3531896,-5895,-360,-3767,-4869,642,-3767,4911.1,172.49,184.70,202,-5747,-6358,-3079,2202,1923,34.1351572,-118.1457447,0.63,0.00,1.36,18,1,3,0,1,1
3531906,-5895,-360,-3767,-4869,642,-3767,4911.1,172.49,184.70,557,-5520,-7118,-3221,2962,2640,34.1351572,-118.1457447,0.63,0.00,1.36,18,1,3,0,1,1
3531916,-5895,-360,-3767,-4869,642,-3767,4911.1,172.49,184.70,781,-5257,-7568,-2884,3020,3171,34.1351572,-118.1457447,0.63,0.00,1.36,18,1,3,0,1,1
3531926,-5895,-360,-3767,-4869,642,-3767,4911.1,172.49,184.70,871,-4999,-7870,-2200,2765,3646,34.1351572,-118.1457447,0.63,0.00,1.36,18,1,3,0,1,1
3531936,-5895,-360,-3767,-4869,642,-3767,4911.1,172.49,184.70,907,-4647,-7940,-1066,2232,3917,34.1351572,-118.1457447,0.63,0.00,1.36,18,1,3,0,1,1
3531946,-5895,-360,-3767,-4869,642,-3767,4911.1,172.49,184.70,903,-4002,-7503,1351,1117,3836,34.1351572,-118.1457447,0.63,0.00,1.36,18,1,3,0,1,1
3531956,-5895,-360,-3767,-4869,642,-3767,4911.1,172.49,184.70,829,-3714,-6926,2662,269,3438,34.1351572,-118.1457447,0.63,0.00,1.36,18,1,3,0,1,1
3531966,-5895,-665,-3767,-4869,337,-3767,4880.6,176.04,188.26,714,-3589,-6242,3089,-570,2945,34.1351567,-118.1457444,0.94,0.00,1.43,17,1,3,0,1,1
3531976,-5895,-665,-3767,-4869,337,-3767,4880.6,176.04,188.26,549,-3641,-5595,2554,-1302,2529,34.1351567,-118.1457444,0.94,0.00,1.43,17,1,3,0,1,1
3531986,-5895,-665,-3767,-4869,337,-3767,4880.6,176.04,188.26,239,-3795,-4803,1200,-2019,2013,34.1351567,-118.1457444,0.94,0.00,1.43,17,1,3,0,1,1
3531996,-5895,-665,-3767,-4869,337,-3767,4880.6,176.04,188.26,61,-3801,-4332,834,-1986,1705,34.1351567,-118.1457444,0.94,0.00,1.43,17,1,3,0,1,1
3532006,-5895,-665,-3767,-4869,337,-3767,4880.6,176.04,188.26,-69,-3784,-3883,833,-1549,1511,34.1351567,-118.1457444,0.94,0.00,1.43,17,1,3,0,1,1
3532016,-5895,-665,-3767,-4869,337,-3767,4880.6,176.04,188.26,-166,-3853,-3525,716,-960,1292,34.1351567,-118.1457444,0.94,0.00,1.43,17,1,3,0,1,1
3532026,-5895,-665,-3767,-4869,337,-3767,4880.6,176.04,188.26,-266,-4163,-3330,-317,-167,933,34.1351567,-118.1457444,0.94,0.00,1.43,17,1,3,0,1,1
3532036,-5895,-665,-3767,-4869,337,-3767,4880.6,176.04,188.26,-264,-4407,-3405,-1372,180,709,34.1351567,-118.1457444,0.94,0.00,1.43,17,1,3,0,1,1
3532046,-5895,-665,-3767,-4869,337,-3767,4880.6,176.04,188.26,-204,-4609,-3608,-2405,404,490,34.1351567,-118.1457444,0.94,0.00,1.43,17,1,3,0,1,1
3532056,-5895,-665,-3767,-4869,337,-3767,4880.6,176.04,188.26,-104,-4757,-3894,-3158,562,7,34.1351567,-118.1457444,0.94,0.00,1.43,17,1,3,0,1,1
3532066,-5777,-815,-3847,-4751,187,-3847,4754.7,177.75,189.96,71,-4969,-4368,-3581,667,-39,34.1351561,-118.1457441,0.69,0.00,1.43,17,1,3,0,1,1
3532076,-5777,-815,-3847,-4751,187,-3847,4754.7,177.75,189.96,178,-5150,-4721,-3537,727,-117,34.1351561,-118.1457441,0.69,0.00,1.43,17,1,3,0,1,1
3532086,-5777,-815,-3847,-4751,187,-3847,4754.7,177.75,189.96,287,-5325,-5077,-3325,833,19,34.1351561,-118.1457441,0.69,0.00,1.43,17,1,3,0,1,1
3532096,-5777,-815,-3847,-4751,187,-3847,4754.7,177.75,189.96,440,-5405,-5389,-2908,880,222,34.1351561,-118.1457441,0.69,0.00,1.43,17,1,3,0,1,1
3532106,-5777,-815,-3847,-4751,187,-3847,4754.7,177.75,189.96,700,-5379,-5689,-1930,615,449,34.1351561,-118.1457441,0.69,0.00,1.43,17,1,3,0,1,1
3532116,-5777,-815,-3847,-4751,187,-3847,4754.7,177.75,189.96,782,-5361,-5780,-1266,199,666,34.1351561,-118.1457441,0.69,0.00,1.43,17,1,3,0,1,1
3532126,-5777,-815,-3847,-4751,187,-3847,4754.7,177.75,189.96,779,-5329,-5798,-670,-291,842,34.1351561,-118.1457441,0.69,0.00,1.43,17,1,3,0,1,1
3532136,-5777,-815,-3847,-4751,187,-3847,4754.7,177.75,189.96,724,-5281,-5731,-33,-836,937,34.1351561,-118.1457441,0.69,0.00,1.43,17,1,3,0,1,1
3532146,-5777,-815,-3847,-4751,187,-3847,4754.7,177.75,189.96,562,-5201,-5365,1050,-1743,979,34.1351561,-118.1457441,0.69,0.00,1.43,17,1,3,0,1,1
3532156,-5777,-815,-3847,-4751,187,-3847,4754.7,177.75,189.96,401,-5170,-4974,1509,-2276,946,34.1351561,-118.1457441,0.69,0.00,1.43,17,1,3,0,1,1
3532166,-5980,-722,-3815,-4954,280,-3815,4961.9,176.77,188.98,230,-5164,-4576,1603,-2520,903,34.1351553,-118.1457440,0.91,0.00,1.43,17,1,3,0,1,1
3532176,-5980,-722,-3815,-4954,280,-3815,4961.9,176.77,188.98,91,-5159,-4264,1424,-2256,842,34.1351553,-118.1457440,0.91,0.00,1.43,17,1,3,0,1,1
3532186,-5980,-722,-3815,-4954,280,-3815,4961.9,176.77,188.98,-28,-5108,-4025,1290,-1878,846,34.1351553,-118.1457440,0.91,0.00,1.43,17,1,3,0,1,1
3532196,-5980,-722,-3815,-4954,280,-3815,4961.9,176.77,188.98,-60,-5046,-3948,1202,-1517,807,34.1351553,-118.1457440,0.91,0.00,1.43,17,1,3,0,1,1
3532206,-5980,-722,-3815,-4954,280,-3815,4961.9,176.77,188.98,-83,-4976,-3891,1103,-1196,701,34.1351553,-118.1457440,0.91,0.00,1.43,17,1,3,0,1,1
3532216,-5980,-722,-3815,-4954,280,-3815,4961.9,176.77,188.98,-111,-4912,-3878,985,-765,489,34.1351553,-118.1457440,0.91,0.00,1.43,17,1,3,0,1,1
3532226,-5980,-722,-3815,-4954,280,-3815,4961.9,176.77,188.98,-168,-4857,-3975,925,-550,290,34.1351553,-118.1457440,0.91,0.00,1.43,17,1,3,0,1,1
3532236,-5980,-722,-3815,-4954,280,-3815,4961.9,176.77,188.98,-192,-4892,-4104,926,-365,-16,34.1351553,-118.1457440,0.91,0.00,1.43,17,1,3,0,1,1
3532246,-5980,-722,-3815,-4954,280,-3815,4961.9,176.77,188.98,-183,-4987,-4252,865,-195,-346,34.1351553,-118.1457440,0.91,0.00,1.43,17,1,3,0,1,1
3532256,-5980,-722,-3815,-4954,280,-3815,4961.9,176.77,188.98,-130,-5133,-4473,508,-262,-791,34.1351553,-118.1457440,0.91,0.00,1.43,17,1,3,0,1,1
3532266,-5862,-755,-3740,-4836,247,-3740,4842.3,177.08,189.29,-33,-5185,-4617,333,-463,-1062,34.1351544,-118.1457438,1.14,154.06,1.43,17,1,3,0,1,1
3532276,-5862,-755,-3740,-4836,247,-3740,4842.3,177.08,189.29,-24,-5264,-4751,388,-673,-1356,34.1351544,-118.1457438,1.14,154.06,1.43,17,1,3,0,1,1
3532286,-5862,-755,-3740,-4836,247,-3740,4842.3,177.08,189.29,-38,-5412,-4853,620,-848,-1709,34.1351544,-118.1457438,1.14,154.06,1.43,17,1,3,0,1,1
3532296,-5862,-755,-3740,-4836,247,-3740,4842.3,177.08,189.29,247,-5710,-4931,1094,-872,-2140,34.1351544,-118.1457438,1.14,154.06,1.43,17,1,3,0,1,1
3532306,-5862,-755,-3740,-4836,247,-3740,4842.3,177.08,189.29,153,-5897,-4972,1392,-738,-2306,34.1351544,-118.1457438,1.14,154.06,1.43,17,1,3,0,1,1
3532316,-5862,-755,-3740,-4836,247,-3740,4842.3,177.08,189.29,319,-6072,-5034,1534,-468,-2346,34.1351544,-118.1457438,1.14,154.06,1.43,17,1,3,0,1,1
3532326,-5862,-755,-3740,-4836,247,-3740,4842.3,177.08,189.29,526,-6186,-5072,1540,-164,-2192,34.1351544,-118.1457438,1.14,154.06,1.43,17,1,3,0,1,1
3532336,-5862,-755,-3740,-4836,247,-3740,4842.3,177.08,189.29,769,-6302,-5125,1222,305,-1680,34.1351544,-118.1457438,1.14,154.06,1.43,17,1,3,0,1,1
3532346,-5862,-755,-3740,-4836,247,-3740,4842.3,177.08,189.29,809,-6436,-5304,709,780,-1277,34.1351544,-118.1457438,1.14,154.06,1.43,17,1,3,0,1,1
3532356,-5862,-755,-3740,-4836,247,-3740,4842.3,177.08,189.29,799,-6538,-5611,256,1198,-754,34.1351544,-118.1457438,1.14,154.06,1.43,17,1,3,0,1,1
3532366,-5760,-790,-3695,-4734,212,-3695,4738.7,177.44,189.65,768,-6557,-5991,259,1404,-133,34.1351536,-118.1457436,1.10,177.27,1.43,17,1,3,0,1,1
3532376,-5760,-790,-3695,-4734,212,-3695,4738.7,177.44,189.65,666,-6478,-6482,1150,1160,765,34.1351536,-118.1457436,1.10,177.27,1.43,17,1,3,0,1,1
3532386,-5760,-790,-3695,-4734,212,-3695,4738.7,177.44,189.65,561,-6421,-6562,1789,286,1075,34.1351536,-118.1457436,1.10,177.27,1.43,17,1,3,0,1,1
3532396,-5760,-790,-3695,-4734,212,-3695,4738.7,177.44,189.65,347,-6382,-6399,2183,-924,958,34.1351536,-118.1457436,1.10,177.27,1.43,17,1,3,0,1,1
3532406,-5760,-790,-3695,-4734,212,-3695,4738.7,177.44,189.65,-2,-6344,-6044,2251,-1931,709,34.1351536,-118.1457436,1.10,177.27,1.43,17,1,3,0,1,1
3532416,-5760,-790,-3695,-4734,212,-3695,4738.7,177.44,189.65,-535,-6233,-5358,1727,-2807,343,34.1351536,-118.1457436,1.10,177.27,1.43,17,1,3,0,1,1
3532426,-5760,-790,-3695,-4734,212,-3695,4738.7,177.44,189.65,-770,-6164,-5004,860,-2954,-176,34.1351536,-118.1457436,1.10,177.27,1.43,17,1,3,0,1,1
3532436,-5760,-790,-3695,-4734,212,-3695,4738.7,177.44,189.65,-937,-6198,-4782,-316,-2659,-715,34.1351536,-118.1457436,1.10,177.27,1.43,17,1,3,0,1,1
3532446,-5760,-790,-3695,-4734,212,-3695,4738.7,177.44,189.65,-1037,-6338,-4763,-1610,-1748,-957,34.1351536,-118.1457436,1.10,177.27,1.43,17,1,3,0,1,1
3532456,-5760,-790,-3695,-4734,212,-3695,4738.7,177.44,189.65,-852,-6392,-5426,-3684,880,-894,34.1351536,-118.1457436,1.10,177.27,1.43,17,1,3,0,1,1
3532466,-5872,-635,-3707,-4846,367,-3707,4859.9,175.67,187.89,-454,-6131,-6299,-4613,2625,-759,34.1351530,-118.1457434,0.63,196.66,1.46,16,1,3,0,1,1
3532476,-5872,-635,-3707,-4846,367,-3707,4859.9,175.67,187.89,28,-5749,-7222,-4699,3594,-683,34.1351530,-118.1457434,0.63,196.66,1.46,16,1,3,0,1,1
3532486,-5872,-635,-3707,-4846,367,-3707,4859.9,175.67,187.89,402,-5416,-7935,-3893,3724,-689,34.1351530,-118.1457434,0.63,196.66,1.46,16,1,3,0,1,1
3532496,-5872,-635,-3707,-4846,367,-3707,4859.9,175.67,187.89,632,-5005,-8423,-1384,2709,-1056,34.1351530,-118.1457434,0.63,196.66,1.46,16,1,3,0,1,1
3532506,-5872,-635,-3707,-4846,367,-3707,4859.9,175.67,187.89,616,-4806,-8231,530,1330,-1624,34.1351530,-118.1457434,0.63,196.66,1.46,16,1,3,0,1,1
3532516,-5872,-635,-3707,-4846,367,-3707,4859.9,175.67,187.89,465,-4803,-7603,2071,-395,-2322,34.1351530,-118.1457434,0.63,196.66,1.46,16,1,3,0,1,1
3532526,-5872,-635,-3707,-4846,367,-3707,4859.9,175.67,187.89,221,-5025,-6700,2731,-1973,-2918,34.1351530,-118.1457434,0.63,196.66,1.46,16,1,3,0,1,1
3532536,-5872,-635,-3707,-4846,367,-3707,4859.9,175.67,187.89,-99,-5405,-5389,2231,-3156,-3209,34.1351530,-118.1457434,0.63,196.66,1.46,16,1,3,0,1,1
3532546,-5872,-635,-3707,-4846,367,-3707,4859.9,175.67,187.89,-227,-5511,-4698,1612,-3288,-3018,34.1351530,-118.1457434,0.63,196.66,1.46,16,1,3,0,1,1
3532556,-5872,-635,-3707,-4846,367,-3707,4859.9,175.67,187.89,-376,-5555,-4144,924,-3007,-2544,34.1351530,-118.1457434,0.63,196.66,1.46,16,1,3,0,1,1
3532566,-5765,-697,-3635,-4739,305,-3635,4748.8,176.32,188.53,-563,-5575,-3771,118,-2119,-1949,34.1351524,-118.1457434,1.32,198.90,1.46,16,1,3,0,1,1
3532576,-5765,-697,-3635,-4739,305,-3635,4748.8,176.32,188.53,-757,-5472,-3663,-1230,57,-935,34.1351524,-118.1457434,1.32,198.90,1.46,16,1,3,0,1,1
3532586,-5765,-697,-3635,-4739,305,-3635,4748.8,176.32,188.53,-687,-5231,-3911,-2163,1605,-300,34.1351524,-118.1457434,1.32,198.90,1.46,16,1,3,0,1,1
3532596,-5765,-697,-3635,-4739,305,-3635,4748.8,176.32,188.53,-432,-4839,-4377,-2848,2849,227,34.1351524,-118.1457434,1.32,198.90,1.46,16,1,3,0,1,1
3532606,-5765,-697,-3635,-4739,305,-3635,4748.8,176.32,188.53,-89,-4389,-4942,-3036,3388,623,34.1351524,-118.1457434,1.32,198.90,1.46,16,1,3,0,1,1
3532616,-5765,-697,-3635,-4739,305,-3635,4748.8,176.32,188.53,252,-3891,-5513,-2460,2793,1004,34.1351524,-118.1457434,1.32,198.90,1.46,16,1,3,0,1,1
3532626,-5765,-697,-3635,-4739,305,-3635,4748.8,176.32,188.53,309,-3675,-5607,-1992,1777,1141,34.1351524,-118.1457434,1.32,198.90,1.46,16,1,3,0,1,1
3532636,-5765,-697,-3635,-4739,305,-3635,4748.8,176.32,188.53,312,-3463,-5558,-1823,666,1095,34.1351524,-118.1457434,1.32,198.90,1.46,16,1,3,0,1,1
3532646,-5765,-697,-3635,-4739,305,-3635,4748.8,176.32,188.53,268,-3297,-5412,-2036,-306,843,34.1351524,-118.1457434,1.32,198.90,1.46,16,1,3,0,1,1
3532656,-5765,-697,-3635,-4739,305,-3635,4748.8,176.32,188.53,134,-3256,-5131,-2681,-1326,194,34.1351524,-118.1457434,1.32,198.90,1.46,16,1,3,0,1,1
3532666,-5712,-687,-3712,-4686,315,-3712,4696.6,176.15,188.37,78,-3308,-4959,-2892,-1682,-347,34.1351518,-118.1457438,2.27,195.96,1.46,16,1,3,0,1,1
3532676,-5712,-687,-3712,-4686,315,-3712,4696.6,176.15,188.37,100,-3383,-4783,-2742,-1714,-921,34.1351518,-118.1457438,2.27,195.96,1.46,16,1,3,0,1,1
3532686,-5712,-687,-3712,-4686,315,-3712,4696.6,176.15,188.37,186,-3520,-4612,-2347,-1527,-1443,34.1351518,-118.1457438,2.27,195.96,1.46,16,1,3,0,1,1
3532696,-5712,-687,-3712,-4686,315,-3712,4696.6,176.15,188.37,386,-3868,-4410,-1676,-1190,-2083,34.1351518,-118.1457438,2.27,195.96,1.46,16,1,3,0,1,1
3532706,-5712,-687,-3712,-4686,315,-3712,4696.6,176.15,188.37,533,-4101,-4295,-1378,-940,-2236,34.1351518,-118.1457438,2.27,195.96,1.46,16,1,3,0,1,1
3532716,-5712,-687,-3712,-4686,315,-3712,4696.6,176.15,188.37,636,-4285,-4211,-1173,-680,-2134,34.1351518,-118.1457438,2.27,195.96,1.46,16,1,3,0,1,1
3532726,-5712,-687,-3712,-4686,315,-3712,4696.6,176.15,188.37,669,-4409,-4165,-916,-374,-2014,34.1351518,-118.1457438,2.27,195.96,1.46,16,1,3,0,1,1
3532736,-5712,-687,-3712,-4686,315,-3712,4696.6,176.15,188.37,617,-4500,-4156,-204,325,-1805,34.1351518,-118.1457438,2.27,195.96,1.46,16,1,3,0,1,1
3532746,-5712,-687,-3712,-4686,315,-3712,4696.6,176.15,188.37,592,-4568,-4192,415,864,-1558,34.1351518,-118.1457438,2.27,195.96,1.46,16,1,3,0,1,1
3532756,-5712,-687,-3712,-4686,315,-3712,4696.6,176.15,188.37,591,-4677,-4255,974,1351,-1315,34.1351518,-118.1457438,2.27,195.96,1.46,16,1,3,0,1,1
3532766,-5852,-520,-3825,-4826,482,-3825,4850.0,174.30,186.51,576,-4804,-4334,1308,1610,-1013,34.1351514,-118.1457438,1.56,186.92,1.46,16,1,3,0,1,1
3532776,-5852,-520,-3825,-4826,482,-3825,4850.0,174.30,186.51,450,-4921,-4448,1305,1354,-389,34.1351514,-118.1457438,1.56,186.92,1.46,16,1,3,0,1,1
3532786,-5852,-520,-3825,-4826,482,-3825,4850.0,174.30,186.51,319,-4914,-4518,1097,935,7,34.1351514,-118.1457438,1.56,186.92,1.46,16,1,3,0,1,1
3532796,-5852,-520,-3825,-4826,482,-3825,4850.0,174.30,186.51,223,-4849,-4564,1016,490,269,34.1351514,-118.1457438,1.56,186.92,1.46,16,1,3,0,1,1
3532806,-5852,-520,-3825,-4826,482,-3825,4850.0,174.30,186.51,182,-4783,-4568,1267,15,476,34.1351514,-118.1457438,1.56,186.92,1.46,16,1,3,0,1,1
3532816,-5852,-520,-3825,-4826,482,-3825,4850.0,174.30,186.51,168,-4773,-4558,1459,-227,581,34.1351514,-118.1457438,1.56,186.92,1.46,16,1,3,0,1,1
3532826,-5852,-520,-3825,-4826,482,-3825,4850.0,174.30,186.51,152,-4832,-4549,1565,-388,668,34.1351514,-118.1457438,1.56,186.92,1.46,16,1,3,0,1,1
3532836,-5852,-520,-3825,-4826,482,-3825,4850.0,174.30,186.51,133,-4893,-4540,1583,-436,804,34.1351514,-118.1457438,1.56,186.92,1.46,16,1,3,0,1,1
3532846,-5852,-520,-3825,-4826,482,-3825,4850.0,174.30,186.51,97,-4924,-4558,1357,-435,1063,34.1351514,-118.1457438,1.56,186.92,1.46,16,1,3,0,1,1
3532856,-5852,-520,-3825,-4826,482,-3825,4850.0,174.30,186.51,15,-4900,-4714,549,-167,1488,34.1351514,-118.1457438,1.56,186.92,1.46,16,1,3,0,1,1
3532866,-5857,-540,-3765,-4831,462,-3765,4853.0,174.54,186.75,-18,-4868,-4909,-83,90,1586,34.1351507,-118.1457438,1.10,194.05,1.46,16,1,3,0,1,1
3532876,-5857,-540,-3765,-4831,462,-3765,4853.0,174.54,186.75,-18,-4842,-5181,-746,196,1565,34.1351507,-118.1457438,1.10,194.05,1.46,16,1,3,0,1,1
3532886,-5857,-540,-3765,-4831,462,-3765,4853.0,174.54,186.75,14,-4853,-5543,-1402,208,1382,34.1351507,-118.1457438,1.10,194.05,1.46,16,1,3,0,1,1
3532896,-5857,-540,-3765,-4831,462,-3765,4853.0,174.54,186.75,95,-4973,-6203,-2061,161,1097,34.1351507,-118.1457438,1.10,194.05,1.46,16,1,3,0,1,1
3532906,-5857,-540,-3765,-4831,462,-3765,4853.0,174.54,186.75,140,-5139,-6654,-2052,-31,807,34.1351507,-118.1457438,1.10,194.05,1.46,16,1,3,0,1,1
3532916,-5857,-540,-3765,-4831,462,-3765,4853.0,174.54,186.75,171,-5419,-7029,-1566,-427,498,34.1351507,-118.1457438,1.10,194.05,1.46,16,1,3,0,1,1
3532926,-5857,-540,-3765,-4831,462,-3765,4853.0,174.54,186.75,273,-6080,-7130,-69,-1547,-304,34.1351507,-118.1457438,1.10,194.05,1.46,16,1,3,0,1,1
3532936,-5857,-540,-3765,-4831,462,-3765,4853.0,174.54,186.75,320,-6520,-6729,1092,-2333,-744,34.1351507,-118.1457438,1.10,194.05,1.46,16,1,3,0,1,1
3532946,-5857,-540,-3765,-4831,462,-3765,4853.0,174.54,186.75,263,-6875,-6098,1693,-2744,-700,34.1351507,-118.1457438,1.10,194.05,1.46,16,1,3,0,1,1
3532956,-5857,-540,-3765,-4831,462,-3765,4853.0,174.54,186.75,128,-7093,-5551,1370,-2529,-357,34.1351507,-118.1457438,1.10,194.05,1.46,16,1,3,0,1,1
3532966,-5862,-617,-3767,-4836,385,-3767,4851.3,175.45,187.66,0,-7126,-5080,-217,-1082,368,34.1351500,-118.1457438,1.04,193.51,1.46,16,1,3,0,1,1
3532976,-5862,-617,-3767,-4836,385,-3767,4851.3,175.45,187.66,-106,-7027,-5049,-1673,353,964,34.1351500,-118.1457438,1.04,193.51,1.46,16,1,3,0,1,1
3532986,-5862,-617,-3767,-4836,385,-3767,4851.3,175.45,187.66,-110,-6922,-5421,-3395,1883,1588,34.1351500,-118.1457438,1.04,193.51,1.46,16,1,3,0,1,1
3532996,-5862,-617,-3767,-4836,385,-3767,4851.3,175.45,187.66,48,-6622,-6210,-4991,3288,2096,34.1351500,-118.1457438,1.04,193.51,1.46,16,1,3,0,1,1
3533006,-5862,-617,-3767,-4836,385,-3767,4851.3,175.45,187.66,647,-5907,-7602,-5807,4383,2389,34.1351500,-118.1457438,1.04,193.51,1.46,16,1,3,0,1,1
3533016,-5862,-617,-3767,-4836,385,-3767,4851.3,175.45,187.66,1060,-5537,-8315,-5106,4258,2401,34.1351500,-118.1457438,1.04,193.51,1.46,16,1,3,0,1,1
3533026,-5862,-617,-3767,-4836,385,-3767,4851.3,175.45,187.66,1404,-5192,-8756,-3714,3664,2299,34.1351500,-118.1457438,1.04,193.51,1.46,16,1,3,0,1,1
3533036,-5862,-617,-3767,-4836,385,-3767,4851.3,175.45,187.66,1637,-4825,-8832,-2064,2690,2093,34.1351500,-118.1457438,1.04,193.51,1.46,16,1,3,0,1,1
3533046,-5862,-617,-3767,-4836,385,-3767,4851.3,175.45,187.66,1559,-4536,-8294,-93,967,1628,34.1351500,-118.1457438,1.04,193.51,1.46,16,1,3,0,1,1
3533056,-5862,-617,-3767,-4836,385,-3767,4851.3,175.45,187.66,1231,-4546,-7655,576,444,1292,34.1351500,-118.1457438,1.04,193.51,1.46,16,1,3,0,1,1
3533066,-5765,-697,-3837,-4739,305,-3837,4748.8,176.32,188.53,872,-4593,-6974,726,565,1133,34.1351487,-118.1457437,1.34,193.91,1.46,16,1,3,0,1,1
3533076,-5765,-697,-3837,-4739,305,-3837,4748.8,176.32,188.53,646,-4526,-6379,704,1054,1144,34.1351487,-118.1457437,1.34,193.91,1.46,16,1,3,0,1,1
3533086,-5765,-697,-3837,-4739,305,-3837,4748.8,176.32,188.53,568,-4192,-5654,629,1831,962,34.1351487,-118.1457437,1.34,193.91,1.46,16,1,3,0,1,1
3533096,-5765,-697,-3837,-4739,305,-3837,4748.8,176.32,188.53,561,-4045,-5219,439,1954,557,34.1351487,-118.1457437,1.34,193.91,1.46,16,1,3,0,1,1
3533106,-5765,-697,-3837,-4739,305,-3837,4748.8,176.32,188.53,500,-4076,-4777,144,1638,128,34.1351487,-118.1457437,1.34,193.91,1.46,16,1,3,0,1,1
3533116,-5765,-697,-3837,-4739,305,-3837,4748.8,176.32,188.53,353,-4296,-4340,-251,1072,-130,34.1351487,-118.1457437,1.34,193.91,1.46,16,1,3,0,1,1
3533126,-5765,-697,-3837,-4739,305,-3837,4748.8,176.32,188.53,59,-4796,-3791,-1020,193,-166,34.1351487,-118.1457437,1.34,193.91,1.46,16,1,3,0,1,1
3533136,-5765,-697,-3837,-4739,305,-3837,4748.8,176.32,188.53,-100,-5062,-3532,-1642,-220,142,34.1351487,-118.1457437,1.34,193.91,1.46,16,1,3,0,1,1
3533146,-5765,-697,-3837,-4739,305,-3837,4748.8,176.32,188.53,-195,-5236,-3393,-2450,-399,665,34.1351487,-118.1457437,1.34,193.91,1.46,16,1,3,0,1,1
3533156,-5765,-697,-3837,-4739,305,-3837,4748.8,176.32,188.53,-237,-5292,-3392,-3452,-346,1279,34.1351487,-118.1457437,1.34,193.91,1.46,16,1,3,0,1,1
3533166,-5707,-785,-3875,-4681,217,-3875,4686.0,177.35,189.56,-251,-5064,-3716,-4815,151,2096,34.1351460,-118.1457419,1.78,164.37,1.46,16,1,3,0,1,1
3533176,-5707,-785,-3875,-4681,217,-3875,4686.0,177.35,189.56,-230,-4750,-4118,-5117,753,2465,34.1351460,-118.1457419,1.78,164.37,1.46,16,1,3,0,1,1
3533186,-5707,-785,-3875,-4681,217,-3875,4686.0,177.35,189.56,-190,-4446,-4575,-4708,1423,2695,34.1351460,-118.1457419,1.78,164.37,1.46,16,1,3,0,1,1
3533196,-5707,-785,-3875,-4681,217,-3875,4686.0,177.35,189.56,-155,-4236,-4994,-3680,2007,2803,34.1351460,-118.1457419,1.78,164.37,1.46,16,1,3,0,1,1
3533206,-5707,-785,-3875,-4681,217,-3875,4686.0,177.35,189.56,-79,-4008,-5494,-1353,2641,2807,34.1351460,-118.1457419,1.78,164.37,1.46,16,1,3,0,1,1
3533216,-5707,-785,-3875,-4681,217,-3875,4686.0,177.35,189.56,7,-3873,-5707,132,2573,2711,34.1351460,-118.1457419,1.78,164.37,1.46,16,1,3,0,1,1
3533226,-5707,-785,-3875,-4681,217,-3875,4686.0,177.35,189.56,89,-3775,-5810,1012,2014,2456,34.1351460,-118.1457419,1.78,164.37,1.46,16,1,3,0,1,1
3533236,-5707,-785,-3875,-4681,217,-3875,4686.0,177.35,189.56,160,-3711,-5800,1368,1175,2052,34.1351460,-118.1457419,1.78,164.37,1.46,16,1,3,0,1,1
3533246,-5707,-785,-3875,-4681,217,-3875,4686.0,177.35,189.56,205,-3760,-5588,1518,-400,1601,34.1351460,-118.1457419,1.78,164.37,1.46,16,1,3,0,1,1
3533256,-5707,-785,-3875,-4681,217,-3875,4686.0,177.35,189.56,155,-3922,-5357,1496,-1376,1463,34.1351460,-118.1457419,1.78,164.37,1.46,16,1,3,0,1,1
3533266,-5670,-977,-3900,-4644,25,-3900,4644.1,179.69,191.91,74,-4106,-5096,1424,-1990,1375,34.1351451,-118.1457421,0.67,172.91,1.46,16,1,3,0,1,1
3533276,-5670,-977,-3900,-4644,25,-3900,4644.1,179.69,191.91,2,-4203,-4851,1389,-2221,1318,34.1351451,-118.1457421,0.67,172.91,1.46,16,1,3,0,1,1
3533286,-5670,-977,-3900,-4644,25,-3900,4644.1,179.69,191.91,-76,-4213,-4610,1302,-2229,1082,34.1351451,-118.1457421,0.67,172.91,1.46,16,1,3,0,1,1
3533296,-5670,-977,-3900,-4644,25,-3900,4644.1,179.69,191.91,-114,-4224,-4532,1198,-2188,714,34.1351451,-118.1457421,0.67,172.91,1.46,16,1,3,0,1,1
3533306,-5670,-977,-3900,-4644,25,-3900,4644.1,179.69,191.91,-161,-4308,-4522,1150,-2082,265,34.1351451,-118.1457421,0.67,172.91,1.46,16,1,3,0,1,1
3533316,-5670,-977,-3900,-4644,25,-3900,4644.1,179.69,191.91,-210,-4453,-4567,1152,-1984,-213,34.1351451,-118.1457421,0.67,172.91,1.46,16,1,3,0,1,1
3533326,-5670,-977,-3900,-4644,25,-3900,4644.1,179.69,191.91,-234,-4656,-4689,1455,-1824,-902,34.1351451,-118.1457421,0.67,172.91,1.46,16,1,3,0,1,1
3533336,-5670,-977,-3900,-4644,25,-3900,4644.1,179.69,191.91,-213,-4777,-4784,1875,-1644,-1422,34.1351451,-118.1457421,0.67,172.91,1.46,16,1,3,0,1,1
3533346,-5670,-977,-3900,-4644,25,-3900,4644.1,179.69,191.91,-179,-4915,-4877,2304,-1480,-1878,34.1351451,-118.1457421,0.67,172.91,1.46,16,1,3,0,1,1
3533356,-5670,-977,-3900,-4644,25,-3900,4644.1,179.69,191.91,-122,-5078,-4966,2503,-1400,-2264,34.1351451,-118.1457421,0.67,172.91,1.46,16,1,3,0,1,1
3533366,-5845,-717,-3732,-4819,285,-3732,4827.4,176.62,188.83,56,-5364,-5192,2312,-1375,-2820,34.1351445,-118.1457419,1.22,171.62,1.59,15,1,3,0,1,1
3533376,-5845,-717,-3732,-4819,285,-3732,4827.4,176.62,188.83,204,-5592,-5385,2155,-1500,-3036,34.1351445,-118.1457419,1.22,171.62,1.59,15,1,3,0,1,1
3533386,-5845,-717,-3732,-4819,285,-3732,4827.4,176.62,188.83,344,-5841,-5578,1983,-1757,-2975,34.1351445,-118.1457419,1.22,171.62,1.59,15,1,3,0,1,1
3533396,-5845,-717,-3732,-4819,285,-3732,4827.4,176.62,188.83,493,-6072,-5785,1570,-2033,-2634,34.1351445,-118.1457419,1.22,171.62,1.59,15,1,3,0,1,1
3533406,-5845,-717,-3732,-4819,285,-3732,4827.4,176.62,188.83,739,-6227,-6209,654,-2300,-1865,34.1351445,-118.1457419,1.22,171.62,1.59,15,1,3,0,1,1
3533416,-5845,-717,-3732,-4819,285,-3732,4827.4,176.62,188.83,795,-6181,-6536,59,-2584,-1250,34.1351445,-118.1457419,1.22,171.62,1.59,15,1,3,0,1,1
3533426,-5845,-717,-3732,-4819,285,-3732,4827.4,176.62,188.83,656,-6076,-6796,-398,-3063,-755,34.1351445,-118.1457419,1.22,171.62,1.59,15,1,3,0,1,1
3533436,-5845,-717,-3732,-4819,285,-3732,4827.4,176.62,188.83,375,-6014,-6887,-393,-3562,-759,34.1351445,-118.1457419,1.22,171.62,1.59,15,1,3,0,1,1
3533446,-5845,-717,-3732,-4819,285,-3732,4827.4,176.62,188.83,43,-6031,-6615,610,-3807,-1704,34.1351445,-118.1457419,1.22,171.62,1.59,15,1,3,0,1,1
3533456,-5845,-717,-3732,-4819,285,-3732,4827.4,176.62,188.83,4,-6074,-6232,1210,-3484,-2607,34.1351445,-118.1457419,1.22,171.62,1.59,15,1,3,0,1,1
3533466,-5857,-732,-3675,-4831,270,-3675,4838.5,176.80,189.02,70,-6227,-5838,1226,-3030,-3496,34.1351439,-118.1457419,0.89,0.00,1.55,16,1,3,0,1,1
3533476,-5857,-732,-3675,-4831,270,-3675,4838.5,176.80,189.02,182,-6530,-5571,799,-2408,-4539,34.1351439,-118.1457419,0.89,0.00,1.55,16,1,3,0,1,1
3533486,-5857,-732,-3675,-4831,270,-3675,4838.5,176.80,189.02,370,-7155,-5443,-420,-1068,-4637,34.1351439,-118.1457419,0.89,0.00,1.55,16,1,3,0,1,1
3533496,-5857,-732,-3675,-4831,270,-3675,4838.5,176.80,189.02,512,-7506,-5639,-1879,83,-4080,34.1351439,-118.1457419,0.89,0.00,1.55,16,1,3,0,1,1
3533506,-5857,-732,-3675,-4831,270,-3675,4838.5,176.80,189.02,699,-7539,-6187,-3576,1547,-3034,34.1351439,-118.1457419,0.89,0.00,1.55,16,1,3,0,1,1
3533516,-5857,-732,-3675,-4831,270,-3675,4838.5,176.80,189.02,918,-7143,-7040,-4952,2949,-1782,34.1351439,-118.1457419,0.89,0.00,1.55,16,1,3,0,1,1
3533526,-5857,-732,-3675,-4831,270,-3675,4838.5,176.80,189.02,1101,-6122,-8370,-5486,3974,-167,34.1351439,-118.1457419,0.89,0.00,1.55,16,1,3,0,1,1
3533536,-5857,-732,-3675,-4831,270,-3675,4838.5,176.80,189.02,1027,-5484,-9015,-4471,3885,331,34.1351439,-118.1457419,0.89,0.00,1.55,16,1,3,0,1,1
3533546,-5857,-732,-3675,-4831,270,-3675,4838.5,176.80,189.02,860,-4935,-9299,-2313,3207,240,34.1351439,-118.1457419,0.89,0.00,1.55,16,1,3,0,1,1
3533556,-5857,-732,-3675,-4831,270,-3675,4838.5,176.80,189.02,633,-4529,-9044,276,1323,-539,34.1351439,-118.1457419,0.89,0.00,1.55,16,1,3,0,1,1
3533566,-5722,-625,-3732,-4696,377,-3732,4711.1,175.41,187.63,123,-4467,-7750,2632,-223,-1030,34.1351427,-118.1457420,2.06,183.09,1.55,16,1,3,0,1,1
3533576,-5722,-625,-3732,-4696,377,-3732,4711.1,175.41,187.63,-294,-4708,-6724,2533,-1561,-1119,34.1351427,-118.1457420,2.06,183.09,1.55,16,1,3,0,1,1
3533586,-5722,-625,-3732,-4696,377,-3732,4711.1,175.41,187.63,-650,-4864,-5853,1725,-2431,-881,34.1351427,-118.1457420,2.06,183.09,1.55,16,1,3,0,1,1
3533596,-5722,-625,-3732,-4696,377,-3732,4711.1,175.41,187.63,-900,-4859,-5143,-186,-2722,-247,34.1351427,-118.1457420,2.06,183.09,1.55,16,1,3,0,1,1
3533606,-5722,-625,-3732,-4696,377,-3732,4711.1,175.41,187.63,-1174,-4738,-4415,-1299,-2197,266,34.1351427,-118.1457420,2.06,183.09,1.55,16,1,3,0,1,1
3533616,-5722,-625,-3732,-4696,377,-3732,4711.1,175.41,187.63,-1257,-4536,-4203,-2273,-1146,751,34.1351427,-118.1457420,2.06,183.09,1.55,16,1,3,0,1,1
3533626,-5722,-625,-3732,-4696,377,-3732,4711.1,175.41,187.63,-1225,-4193,-4222,-2935,273,1125,34.1351427,-118.1457420,2.06,183.09,1.55,16,1,3,0,1,1
3533636,-5722,-625,-3732,-4696,377,-3732,4711.1,175.41,187.63,-1058,-3509,-4670,-3138,2323,1036,34.1351427,-118.1457420,2.06,183.09,1.55,16,1,3,0,1,1
3533646,-5722,-625,-3732,-4696,377,-3732,4711.1,175.41,187.63,-599,-3215,-5085,-2706,3096,582,34.1351427,-118.1457420,2.06,183.09,1.55,16,1,3,0,1,1
3533656,-5722,-625,-3732,-4696,377,-3732,4711.1,175.41,187.63,-299,-3053,-5400,-1933,3233,77,34.1351427,-118.1457420,2.06,183.09,1.55,16,1,3,0,1,1
3533666,-5872,-562,-3740,-4846,440,-3740,4865.9,174.81,187.03,-107,-3027,-5520,-1031,2890,-433,34.1351416,-118.1457421,2.24,186.17,1.55,16,1,3,0,1,1
3533676,-5872,-562,-3740,-4846,440,-3740,4865.9,174.81,187.03,10,-3084,-5433,-46,2111,-1184,34.1351416,-118.1457421,2.24,186.17,1.55,16,1,3,0,1,1
3533686,-5872,-562,-3740,-4846,440,-3740,4865.9,174.81,187.03,159,-3158,-5324,229,1599,-1598,34.1351416,-118.1457421,2.24,186.17,1.55,16,1,3,0,1,1
3533696,-5872,-562,-3740,-4846,440,-3740,4865.9,174.81,187.03,220,-3288,-5215,400,1081,-1959,34.1351416,-118.1457421,2.24,186.17,1.55,16,1,3,0,1,1
3533706,-5872,-562,-3740,-4846,440,-3740,4865.9,174.81,187.03,260,-3448,-5083,625,667,-2311,34.1351416,-118.1457421,2.24,186.17,1.55,16,1,3,0,1,1
3533716,-5872,-562,-3740,-4846,440,-3740,4865.9,174.81,187.03,378,-3750,-4904,1062,342,-2661,34.1351416,-118.1457421,2.24,186.17,1.55,16,1,3,0,1,1
3533726,-5872,-562,-3740,-4846,440,-3740,4865.9,174.81,187.03,490,-4019,-4896,1618,412,-2716,34.1351416,-118.1457421,2.24,186.17,1.55,16,1,3,0,1,1
3533736,-5872,-562,-3740,-4846,440,-3740,4865.9,174.81,187.03,615,-4255,-4871,2476,634,-2650,34.1351416,-118.1457421,2.24,186.17,1.55,16,1,3,0,1,1
3533746,-5872,-562,-3740,-4846,440,-3740,4865.9,174.81,187.03,751,-4394,-4763,3176,843,-2478,34.1351416,-118.1457421,2.24,186.17,1.55,16,1,3,0,1,1
3533756,-5872,-562,-3740,-4846,440,-3740,4865.9,174.81,187.03,838,-4504,-4608,3167,1114,-2137,34.1351416,-118.1457421,2.24,186.17,1.55,16,1,3,0,1,1
3533766,-5737,-282,-3577,-4711,720,-3577,4765.7,171.31,183.53,809,-4558,-4570,2554,1272,-1911,34.1351395,-118.1457428,1.46,189.63,1.46,17,1,3,0,1,1
3533776,-5737,-282,-3577,-4711,720,-3577,4765.7,171.31,183.53,748,-4567,-4573,1969,1481,-1614,34.1351395,-118.1457428,1.46,189.63,1.46,17,1,3,0,1,1
3533786,-5737,-282,-3577,-4711,720,-3577,4765.7,171.31,183.53,646,-4523,-4620,1786,1767,-1237,34.1351395,-118.1457428,1.46,189.63,1.46,17,1,3,0,1,1
3533796,-5737,-282,-3577,-4711,720,-3577,4765.7,171.31,183.53,516,-4408,-4735,2144,2107,-612,34.1351395,-118.1457428,1.46,189.63,1.46,17,1,3,0,1,1
3533806,-5737,-282,-3577,-4711,720,-3577,4765.7,171.31,183.53,488,-4328,-4774,2532,2048,-286,34.1351395,-118.1457428,1.46,189.63,1.46,17,1,3,0,1,1
3533816,-5737,-282,-3577,-4711,720,-3577,4765.7,171.31,183.53,467,-4298,-4743,2798,1818,-49,34.1351395,-118.1457428,1.46,189.63,1.46,17,1,3,0,1,1
3533826,-5737,-282,-3577,-4711,720,-3577,4765.7,171.31,183.53,404,-4353,-4673,2853,1503,144,34.1351395,-118.1457428,1.46,189.63,1.46,17,1,3,0,1,1
3533836,-5737,-282,-3577,-4711,720,-3577,4765.7,171.31,183.53,299,-4509,-4587,2689,860,584,34.1351395,-118.1457428,1.46,189.63,1.46,17,1,3,0,1,1
3533846,-5737,-282,-3577,-4711,720,-3577,4765.7,171.31,183.53,284,-4593,-4542,2575,347,916,34.1351395,-118.1457428,1.46,189.63,1.46,17,1,3,0,1,1
3533856,-5737,-282,-3577,-4711,720,-3577,4765.7,171.31,183.53,304,-4628,-4535,2504,-90,1211,34.1351395,-118.1457428,1.46,189.63,1.46,17,1,3,0,1,1
3533866,-5595,-540,-3462,-4569,462,-3462,4592.3,174.23,186.44,332,-4619,-4527,2562,-400,1471,34.1351395,-118.1457428,1.46,189.63,1.46,17,1,3,0,1,1
3533876,-5595,-540,-3462,-4569,462,-3462,4592.3,174.23,186.44,298,-4631,-4395,2744,-598,1581,34.1351395,-118.1457428,1.46,189.63,1.46,17,1,3,0,1,1
3533886,-5595,-540,-3462,-4569,462,-3462,4592.3,174.23,186.44,219,-4704,-4317,2576,-453,1601,34.1351395,-118.1457428,1.46,189.63,1.46,17,1,3,0,1,1
3533896,-5595,-540,-3462,-4569,462,-3462,4592.3,174.23,186.44,197,-4793,-4325,1963,-99,1726,34.1351395,-118.1457428,1.46,189.63,1.46,17,1,3,0,1,1
3533906,-5595,-540,-3462,-4569,462,-3462,4592.3,174.23,186.44,244,-4865,-4460,1061,327,1897,34.1351395,-118.1457428,1.46,189.63,1.46,17,1,3,0,1,1
3533916,-5595,-540,-3462,-4569,462,-3462,4592.3,174.23,186.44,325,-4919,-4914,-177,896,2009,34.1351395,-118.1457428,1.46,189.63,1.46,17,1,3,0,1,1
3533926,-5595,-540,-3462,-4569,462,-3462,4592.3,174.23,186.44,357,-4964,-5307,-606,1136,1901,34.1351395,-118.1457428,1.46,189.63,1.46,17,1,3,0,1,1
3533936,-5595,-540,-3462,-4569,462,-3462,4592.3,174.23,186.44,374,-5069,-5702,-754,1196,1702,34.1351395,-118.1457428,1.46,189.63,1.46,17,1,3,0,1,1
3533946,-5595,-540,-3462,-4569,462,-3462,4592.3,174.23,186.44,403,-5252,-6061,-724,1146,1437,34.1351395,-118.1457428,1.46,189.63,1.46,17,1,3,0,1,1
3533956,-5595,-540,-3462,-4569,462,-3462,4592.3,174.23,186.44,474,-5712,-6409,104,798,753,34.1351395,-118.1457428,1.46,189.63,1.46,17,1,3,0,1,1
3533966,-5765,-515,-3345,-4739,487,-3345,4764.0,174.13,186.35,535,-6140,-6323,1346,262,229,34.1351360,-118.1457437,1.28,281.94,1.46,17,1,3,0,1,1
3533976,-5765,-515,-3345,-4739,487,-3345,4764.0,174.13,186.35,547,-6523,-5916,2568,-331,-120,34.1351360,-118.1457437,1.28,281.94,1.46,17,1,3,0,1,1
3533986,-5765,-515,-3345,-4739,487,-3345,4764.0,174.13,186.35,480,-6719,-5397,3013,-607,-115,34.1351360,-118.1457437,1.28,281.94,1.46,17,1,3,0,1,1
3533996,-5765,-515,-3345,-4739,487,-3345,4764.0,174.13,186.35,302,-6983,-4878,1799,-335,477,34.1351360,-118.1457437,1.28,281.94,1.46,17,1,3,0,1,1
3534006,-5765,-515,-3345,-4739,487,-3345,4764.0,174.13,186.35,197,-7285,-4744,60,32,964,34.1351360,-118.1457437,1.28,281.94,1.46,17,1,3,0,1,1
3534016,-5765,-515,-3345,-4739,487,-3345,4764.0,174.13,186.35,152,-7481,-4827,-1987,609,1558,34.1351360,-118.1457437,1.28,281.94,1.46,17,1,3,0,1,1
3534026,-5765,-515,-3345,-4739,487,-3345,4764.0,174.13,186.35,126,-7456,-5232,-4019,1410,2490,34.1351360,-118.1457437,1.28,281.94,1.46,17,1,3,0,1,1
3534036,-5765,-515,-3345,-4739,487,-3345,4764.0,174.13,186.35,299,-6989,-6512,-6433,2864,4085,34.1351360,-118.1457437,1.28,281.94,1.46,17,1,3,0,1,1
3534046,-5765,-515,-3345,-4739,487,-3345,4764.0,174.13,186.35,659,-6460,-7584,-7084,3587,4649,34.1351360,-118.1457437,1.28,281.94,1.46,17,1,3,0,1,1
3534056,-5765,-515,-3345,-4739,487,-3345,4764.0,174.13,186.35,1025,-6007,-8552,-6630,3780,4918,34.1351360,-118.1457437,1.28,281.94,1.46,17,1,3,0,1,1
3534066,-5732,-727,-3495,-4706,275,-3495,4714.0,176.66,188.87,1255,-5733,-9311,-5272,3568,5010,34.1351346,-118.1457439,1.56,181.94,1.46,17,1,3,0,1,1
3534076,-5732,-727,-3495,-4706,275,-3495,4714.0,176.66,188.87,1358,-5388,-9961,-2618,2758,4729,34.1351346,-118.1457439,1.56,181.94,1.46,17,1,3,0,1,1
3534086,-5732,-727,-3495,-4706,275,-3495,4714.0,176.66,188.87,1255,-5143,-10031,-914,1985,4345,34.1351346,-118.1457439,1.56,181.94,1.46,17,1,3,0,1,1
3534096,-5732,-727,-3495,-4706,275,-3495,4714.0,176.66,188.87,1064,-4928,-9832,684,1264,3839,34.1351346,-118.1457439,1.56,181.94,1.46,17,1,3,0,1,1
3534106,-5732,-727,-3495,-4706,275,-3495,4714.0,176.66,188.87,872,-4742,-9396,2156,521,3306,34.1351346,-118.1457439,1.56,181.94,1.46,17,1,3,0,1,1
3534116,-5732,-727,-3495,-4706,275,-3495,4714.0,176.66,188.87,709,-4490,-8321,3846,-819,2283,34.1351346,-118.1457439,1.56,181.94,1.46,17,1,3,0,1,1
3534126,-5732,-727,-3495,-4706,275,-3495,4714.0,176.66,188.87,654,-4418,-7420,4499,-1536,1448,34.1351346,-118.1457439,1.56,181.94,1.46,17,1,3,0,1,1
3534136,-5732,-727,-3495,-4706,275,-3495,4714.0,176.66,188.87,568,-4512,-6516,4942,-2162,688,34.1351346,-118.1457439,1.56,181.94,1.46,17,1,3,0,1,1
3534146,-5732,-727,-3495,-4706,275,-3495,4714.0,176.66,188.87,468,-4729,-5653,5435,-2733,46,34.1351346,-118.1457439,1.56,181.94,1.46,17,1,3,0,1,1
3534156,-5732,-727,-3495,-4706,275,-3495,4714.0,176.66,188.87,416,-5078,-4336,6228,-3173,-431,34.1351346,-118.1457439,1.56,181.94,1.46,17,1,3,0,1,1
3534166,-5600,-930,-3327,-4574,72,-3327,4574.6,179.10,191.31,390,-5298,-3460,6275,-3305,-357,34.1351346,-118.1457439,1.56,181.94,1.46,17,1,3,0,1,1
3534176,-5600,-930,-3327,-4574,72,-3327,4574.6,179.10,191.31,317,-5482,-2697,5766,-3230,-68,34.1351346,-118.1457439,1.56,181.94,1.46,17,1,3,0,1,1
3534186,-5600,-930,-3327,-4574,72,-3327,4574.6,179.10,191.31,165,-5600,-1916,4584,-2427,849,34.1351346,-118.1457439,1.56,181.94,1.46,17,1,3,0,1,1
3534196,-5600,-930,-3327,-4574,72,-3327,4574.6,179.10,191.31,119,-5584,-1708,4107,-1428,1879,34.1351346,-118.1457439,1.56,181.94,1.46,17,1,3,0,1,1
3534206,-5600,-930,-3327,-4574,72,-3327,4574.6,179.10,191.31,115,-5446,-1673,4528,-146,3484,34.1351346,-118.1457439,1.56,181.94,1.46,17,1,3,0,1,1
3534216,-5600,-930,-3327,-4574,72,-3327,4574.6,179.10,191.31,-166,-5134,-1610,5322,777,5084,34.1351346,-118.1457439,1.56,181.94,1.46,17,1,3,0,1,1
3534226,-5600,-930,-3327,-4574,72,-3327,4574.6,179.10,191.31,-624,-4841,-1681,4833,1108,4901,34.1351346,-118.1457439,1.56,181.94,1.46,17,1,3,0,1,1
3534236,-5600,-930,-3327,-4574,72,-3327,4574.6,179.10,191.31,-750,-4379,-1976,1691,1331,3961,34.1351346,-118.1457439,1.56,181.94,1.46,17,1,3,0,1,1
3534246,-5600,-930,-3327,-4574,72,-3327,4574.6,179.10,191.31,-652,-3905,-2113,275,1109,3337,34.1351346,-118.1457439,1.56,181.94,1.46,17,1,3,0,1,1
3534256,-5600,-930,-3327,-4574,72,-3327,4574.6,179.10,191.31,-708,-3550,-2260,236,618,3163,34.1351346,-118.1457439,1.56,181.94,1.46,17,1,3,0,1,1
3534266,-5750,-1085,-3057,-4724,-83,-3057,4724.7,181.01,193.22,-812,-3462,-2426,790,-49,2660,34.1351336,-118.1457437,1.17,177.14,1.46,17,1,3,0,1,1
3534276,-5750,-1085,-3057,-4724,-83,-3057,4724.7,181.01,193.22,-856,-3477,-2450,624,-466,2051,34.1351336,-118.1457437,1.17,177.14,1.46,17,1,3,0,1,1
3534286,-5750,-1085,-3057,-4724,-83,-3057,4724.7,181.01,193.22,-841,-3492,-2434,302,-963,1570,34.1351336,-118.1457437,1.17,177.14,1.46,17,1,3,0,1,1
3534296,-5750,-1085,-3057,-4724,-83,-3057,4724.7,181.01,193.22,-830,-3539,-2403,-36,-1504,1295,34.1351336,-118.1457437,1.17,177.14,1.46,17,1,3,0,1,1
3534306,-5750,-1085,-3057,-4724,-83,-3057,4724.7,181.01,193.22,-847,-3624,-2364,-765,-2317,987,34.1351336,-118.1457437,1.17,177.14,1.46,17,1,3,0,1,1
3534316,-5750,-1085,-3057,-4724,-83,-3057,4724.7,181.01,193.22,-951,-3843,-2401,-1390,-2683,866,34.1351336,-118.1457437,1.17,177.14,1.46,17,1,3,0,1,1
3534326,-5750,-1085,-3057,-4724,-83,-3057,4724.7,181.01,193.22,-1032,-4007,-2478,-2005,-2881,767,34.1351336,-118.1457437,1.17,177.14,1.46,17,1,3,0,1,1
3534336,-5750,-1085,-3057,-4724,-83,-3057,4724.7,181.01,193.22,-1158,-4166,-2606,-2596,-2951,456,34.1351336,-118.1457437,1.17,177.14,1.46,17,1,3,0,1,1
3534346,-5750,-1085,-3057,-4724,-83,-3057,4724.7,181.01,193.22,-1418,-4372,-2882,-3198,-2617,-409,34.1351336,-118.1457437,1.17,177.14,1.46,17,1,3,0,1,1
3534356,-5750,-1085,-3057,-4724,-83,-3057,4724.7,181.01,193.22,-1540,-4459,-3102,-3134,-2103,-1061,34.1351336,-118.1457437,1.17,177.14,1.46,17,1,3,0,1,1
3534366,-5712,-1055,-3072,-4686,-53,-3072,4686.3,180.65,192.86,-1561,-4575,-3372,-2740,-1537,-1892,34.1351328,-118.1457437,1.63,180.67,1.46,17,1,3,0,1,1
3534376,-5712,-1055,-3072,-4686,-53,-3072,4686.3,180.65,192.86,-1472,-4748,-3664,-2221,-1092,-2917,34.1351328,-118.1457437,1.63,180.67,1.46,17,1,3,0,1,1
3534386,-5712,-1055,-3072,-4686,-53,-3072,4686.3,180.65,192.86,-1071,-5211,-4082,-1732,-771,-4488,34.1351328,-118.1457437,1.63,180.67,1.46,17,1,3,0,1,1
3534396,-5712,-1055,-3072,-4686,-53,-3072,4686.3,180.65,192.86,-701,-5607,-4390,-1740,-811,-5214,34.1351328,-118.1457437,1.63,180.67,1.46,17,1,3,0,1,1
3534406,-5712,-1055,-3072,-4686,-53,-3072,4686.3,180.65,192.86,-386,-5983,-4692,-1951,-899,-5503,34.1351328,-118.1457437,1.63,180.67,1.46,17,1,3,0,1,1
3534416,-5712,-1055,-3072,-4686,-53,-3072,4686.3,180.65,192.86,-117,-6309,-5007,-2255,-860,-5500,34.1351328,-118.1457437,1.63,180.67,1.46,17,1,3,0,1,1
3534426,-5712,-1055,-3072,-4686,-53,-3072,4686.3,180.65,192.86,352,-6645,-5634,-2688,-476,-4910,34.1351328,-118.1457437,1.63,180.67,1.46,17,1,3,0,1,1
3534436,-5712,-1055,-3072,-4686,-53,-3072,4686.3,180.65,192.86,695,-6788,-6182,-3053,-99,-4120,34.1351328,-118.1457437,1.63,180.67,1.46,17,1,3,0,1,1
3534446,-5712,-1055,-3072,-4686,-53,-3072,4686.3,180.65,192.86,955,-6947,-6810,-3455,211,-3165,34.1351328,-118.1457437,1.63,180.67,1.46,17,1,3,0,1,1
3534456,-5712,-1055,-3072,-4686,-53,-3072,4686.3,180.65,192.86,1041,-7110,-7391,-3723,220,-2340,34.1351328,-118.1457437,1.63,180.67,1.46,17,1,3,0,1,1
3534466,-5615,-862,-3402,-4589,140,-3402,4591.1,178.25,190.47,867,-7312,-7949,-3630,-287,-1850,34.1351325,-118.1457437,1.23,185.75,1.46,17,1,3,0,1,1
3534476,-5615,-862,-3402,-4589,140,-3402,4591.1,178.25,190.47,749,-7389,-8171,-3316,-483,-1923,34.1351325,-118.1457437,1.23,185.75,1.46,17,1,3,0,1,1
3534486,-5615,-862,-3402,-4589,140,-3402,4591.1,178.25,190.47,746,-7424,-8284,-3008,-633,-2212,34.1351325,-118.1457437,1.23,185.75,1.46,17,1,3,0,1,1
3534496,-5615,-862,-3402,-4589,140,-3402,4591.1,178.25,190.47,851,-7495,-8326,-2998,-953,-2578,34.1351325,-118.1457437,1.23,185.75,1.46,17,1,3,0,1,1
3534506,-5615,-862,-3402,-4589,140,-3402,4591.1,178.25,190.47,1093,-7707,-8319,-3500,-1324,-3032,34.1351325,-118.1457437,1.23,185.75,1.46,17,1,3,0,1,1
3534516,-5615,-862,-3402,-4589,140,-3402,4591.1,178.25,190.47,1205,-7812,-8271,-3807,-1147,-2974,34.1351325,-118.1457437,1.23,185.75,1.46,17,1,3,0,1,1
3534526,-5615,-862,-3402,-4589,140,-3402,4591.1,178.25,190.47,1258,-7742,-8293,-3756,-432,-2480,34.1351325,-118.1457437,1.23,185.75,1.46,17,1,3,0,1,1
3534536,-5615,-862,-3402,-4589,140,-3402,4591.1,178.25,190.47,1316,-7490,-8463,-3345,622,-1684,34.1351325,-118.1457437,1.23,185.75,1.46,17,1,3,0,1,1
3534546,-5615,-862,-3402,-4589,140,-3402,4591.1,178.25,190.47,1327,-6909,-8799,-2419,1601,-559,34.1351325,-118.1457437,1.23,185.75,1.46,17,1,3,0,1,1
3534556,-5615,-862,-3402,-4589,140,-3402,4591.1,178.25,190.47,1111,-6455,-8828,-1390,1355,-261,34.1351325,-118.1457437,1.23,185.75,1.46,17,1,3,0,1,1
3534566,-5722,-780,-3485,-4696,222,-3485,4701.2,177.29,189.51,702,-6008,-8502,51,445,-415,34.1351323,-118.1457434,1.45,168.40,1.46,17,1,3,0,1,1
3534576,-5722,-780,-3485,-4696,222,-3485,4701.2,177.29,189.51,255,-5641,-7780,1254,-781,-868,34.1351323,-118.1457434,1.45,168.40,1.46,17,1,3,0,1,1
3534586,-5722,-780,-3485,-4696,222,-3485,4701.2,177.29,189.51,-299,-5392,-6401,1430,-2421,-1749,34.1351323,-118.1457434,1.45,168.40,1.46,17,1,3,0,1,1
3534596,-5722,-780,-3485,-4696,222,-3485,4701.2,177.29,189.51,-593,-5422,-5616,783,-3078,-2203,34.1351323,-118.1457434,1.45,168.40,1.46,17,1,3,0,1,1
3534606,-5722,-780,-3485,-4696,222,-3485,4701.2,177.29,189.51,-815,-5515,-5021,-11,-3282,-2455,34.1351323,-118.1457434,1.45,168.40,1.46,17,1,3,0,1,1
3534616,-5722,-780,-3485,-4696,222,-3485,4701.2,177.29,189.51,-979,-5630,-4612,-941,-3007,-2531,34.1351323,-118.1457434,1.45,168.40,1.46,17,1,3,0,1,1
3534626,-5722,-780,-3485,-4696,222,-3485,4701.2,177.29,189.51,-1160,-5776,-4405,-2384,-1566,-2297,34.1351323,-118.1457434,1.45,168.40,1.46,17,1,3,0,1,1
3534636,-5722,-780,-3485,-4696,222,-3485,4701.2,177.29,189.51,-1166,-5739,-4617,-2852,-3,-1819,34.1351323,-118.1457434,1.45,168.40,1.46,17,1,3,0,1,1
3534646,-5722,-780,-3485,-4696,222,-3485,4701.2,177.29,189.51,-946,-5521,-5091,-2569,1688,-1247,34.1351323,-118.1457434,1.45,168.40,1.46,17,1,3,0,1,1
3534656,-5722,-780,-3485,-4696,222,-3485,4701.2,177.29,189.51,-528,-5175,-5656,-1832,2832,-792,34.1351323,-118.1457434,1.45,168.40,1.46,17,1,3,0,1,1
3534666,-5567,-625,-3500,-4541,377,-3500,4556.6,175.25,187.47,56,-4644,-6281,-942,3075,-598,34.1351316,-118.1457431,2.19,160.75,1.46,17,1,3,0,1,1
3534676,-5567,-625,-3500,-4541,377,-3500,4556.6,175.25,187.47,295,-4323,-6469,-391,2594,-616,34.1351316,-118.1457431,2.19,160.75,1.46,17,1,3,0,1,1
3534686,-5567,-625,-3500,-4541,377,-3500,4556.6,175.25,187.47,473,-3995,-6481,233,1774,-704,34.1351316,-118.1457431,2.19,160.75,1.46,17,1,3,0,1,1
3534696,-5567,-625,-3500,-4541,377,-3500,4556.6,175.25,187.47,605,-3736,-6313,814,690,-867,34.1351316,-118.1457431,2.19,160.75,1.46,17,1,3,0,1,1
3534706,-5567,-625,-3500,-4541,377,-3500,4556.6,175.25,187.47,688,-3518,-5774,1206,-1054,-1212,34.1351316,-118.1457431,2.19,160.75,1.46,17,1,3,0,1,1
3534716,-5567,-625,-3500,-4541,377,-3500,4556.6,175.25,187.47,670,-3433,-5262,1325,-1819,-1530,34.1351316,-118.1457431,2.19,160.75,1.46,17,1,3,0,1,1
3534726,-5567,-625,-3500,-4541,377,-3500,4556.6,175.25,187.47,632,-3415,-4707,1656,-2076,-1799,34.1351316,-118.1457431,2.19,160.75,1.46,17,1,3,0,1,1
3534736,-5567,-625,-3500,-4541,377,-3500,4556.6,175.25,187.47,624,-3448,-4219,2128,-1929,-1897,34.1351316,-118.1457431,2.19,160.75,1.46,17,1,3,0,1,1
3534746,-5567,-625,-3500,-4541,377,-3500,4556.6,175.25,187.47,727,-3460,-3696,2571,-1172,-1927,34.1351316,-118.1457431,2.19,160.75,1.46,17,1,3,0,1,1
3534756,-5567,-625,-3500,-4541,377,-3500,4556.6,175.25,187.47,870,-3417,-3500,2634,-612,-1931,34.1351316,-118.1457431,2.19,160.75,1.46,17,1,3,0,1,1
3534766,-5540,-630,-3535,-4514,372,-3535,4529.3,175.29,187.51,998,-3398,-3401,2547,-158,-1854,34.1351308,-118.1457429,2.65,167.00,1.46,17,1,3,0,1,1
3534776,-5540,-630,-3535,-4514,372,-3535,4529.3,175.29,187.51,1067,-3440,-3370,2422,218,-1702,34.1351308,-118.1457429,2.65,167.00,1.46,17,1,3,0,1,1
3534786,-5540,-630,-3535,-4514,372,-3535,4529.3,175.29,187.51,1078,-3579,-3366,2270,443,-1292,34.1351308,-118.1457429,2.65,167.00,1.46,17,1,3,0,1,1
3534796,-5540,-630,-3535,-4514,372,-3535,4529.3,175.29,187.51,1018,-3640,-3350,2170,309,-946,34.1351308,-118.1457429,2.65,167.00,1.46,17,1,3,0,1,1
3534806,-5540,-630,-3535,-4514,372,-3535,4529.3,175.29,187.51,911,-3625,-3306,2124,266,-616,34.1351308,-118.1457429,2.65,167.00,1.46,17,1,3,0,1,1
3534816,-5540,-630,-3535,-4514,372,-3535,4529.3,175.29,187.51,803,-3589,-3280,2088,246,-299,34.1351308,-118.1457429,2.65,167.00,1.46,17,1,3,0,1,1
3534826,-5540,-630,-3535,-4514,372,-3535,4529.3,175.29,187.51,664,-3627,-3329,1881,5,25,34.1351308,-118.1457429,2.65,167.00,1.46,17,1,3,0,1,1
3534836,-5540,-630,-3535,-4514,372,-3535,4529.3,175.29,187.51,563,-3764,-3380,1634,-203,99,34.1351308,-118.1457429,2.65,167.00,1.46,17,1,3,0,1,1
3534846,-5540,-630,-3535,-4514,372,-3535,4529.3,175.29,187.51,469,-3941,-3416,1468,-418,202,34.1351308,-118.1457429,2.65,167.00,1.46,17,1,3,0,1,1
3534856,-5540,-630,-3535,-4514,372,-3535,4529.3,175.29,187.51,403,-4070,-3421,1442,-572,391,34.1351308,-118.1457429,2.65,167.00,1.46,17,1,3,0,1,1
3534866,-5670,-552,-3337,-4644,450,-3337,4665.8,174.47,186.68,358,-4160,-3378,1364,-726,732,34.1351303,-118.1457430,2.33,175.39,1.46,17,1,3,0,1,1
3534876,-5670,-552,-3337,-4644,450,-3337,4665.8,174.47,186.68,312,-4231,-3303,1071,-855,914,34.1351303,-118.1457430,2.33,175.39,1.46,17,1,3,0,1,1
3534886,-5670,-552,-3337,-4644,450,-3337,4665.8,174.47,186.68,235,-4304,-3244,583,-901,1050,34.1351303,-118.1457430,2.33,175.39,1.46,17,1,3,0,1,1
3534896,-5670,-552,-3337,-4644,450,-3337,4665.8,174.47,186.68,146,-4332,-3258,-9,-573,1177,34.1351303,-118.1457430,2.33,175.39,1.46,17,1,3,0,1,1
3534906,-5670,-552,-3337,-4644,450,-3337,4665.8,174.47,186.68,30,-4381,-3417,-797,-130,1160,34.1351303,-118.1457430,2.33,175.39,1.46,17,1,3,0,1,1
3534916,-5670,-552,-3337,-4644,450,-3337,4665.8,174.47,186.68,-12,-4480,-3615,-1283,442,1102,34.1351303,-118.1457430,2.33,175.39,1.46,17,1,3,0,1,1
3534926,-5670,-552,-3337,-4644,450,-3337,4665.8,174.47,186.68,1,-4676,-3916,-1783,1013,995,34.1351303,-118.1457430,2.33,175.39,1.46,17,1,3,0,1,1
3534936,-5670,-552,-3337,-4644,450,-3337,4665.8,174.47,186.68,41,-4939,-4304,-2326,1526,879,34.1351303,-118.1457430,2.33,175.39,1.46,17,1,3,0,1,1
3534946,-5670,-552,-3337,-4644,450,-3337,4665.8,174.47,186.68,80,-5386,-5004,-3223,1717,819,34.1351303,-118.1457430,2.33,175.39,1.46,17,1,3,0,1,1
3534956,-5670,-552,-3337,-4644,450,-3337,4665.8,174.47,186.68,144,-5789,-5530,-3593,1847,535,34.1351303,-118.1457430,2.33,175.39,1.46,17,1,3,0,1,1
3534966,-5482,-572,-3307,-4456,430,-3307,4476.7,174.49,186.70,323,-6358,-6018,-3589,1769,-174,34.1351298,-118.1457430,2.01,177.52,1.42,18,1,3,0,1,1
3534976,-5482,-572,-3307,-4456,430,-3307,4476.7,174.49,186.70,600,-7035,-6341,-2994,1130,-1116,34.1351298,-118.1457430,2.01,177.52,1.42,18,1,3,0,1,1
3534986,-5482,-572,-3307,-4456,430,-3307,4476.7,174.49,186.70,898,-7843,-6489,-2975,798,-878,34.1351298,-118.1457430,2.01,177.52,1.42,18,1,3,0,1,1
3534996,-5482,-572,-3307,-4456,430,-3307,4476.7,174.49,186.70,1015,-8076,-6522,-3338,903,2,34.1351298,-118.1457430,2.01,177.52,1.42,18,1,3,0,1,1
3535006,-5482,-572,-3307,-4456,430,-3307,4476.7,174.49,186.70,1106,-8029,-6636,-3943,1330,1170,34.1351298,-118.1457430,2.01,177.52,1.42,18,1,3,0,1,1
3535016,-5482,-572,-3307,-4456,430,-3307,4476.7,174.49,186.70,1132,-7580,-7217,-4927,2616,3079,34.1351298,-118.1457430,2.01,177.52,1.42,18,1,3,0,1,1
3535026,-5482,-572,-3307,-4456,430,-3307,4476.7,174.49,186.70,1260,-7144,-7948,-5279,3796,4148,34.1351298,-118.1457430,2.01,177.52,1.42,18,1,3,0,1,1
3535036,-5482,-572,-3307,-4456,430,-3307,4476.7,174.49,186.70,1528,-6711,-8788,-5133,4678,4808,34.1351298,-118.1457430,2.01,177.52,1.42,18,1,3,0,1,1
3535046,-5482,-572,-3307,-4456,430,-3307,4476.7,174.49,186.70,1803,-6409,-9554,-4638,4900,5083,34.1351298,-118.1457430,2.01,177.52,1.42,18,1,3,0,1,1
3535056,-5482,-572,-3307,-4456,430,-3307,4476.7,174.49,186.70,1946,-6113,-10351,-3543,3918,5174,34.1351298,-118.1457430,2.01,177.52,1.42,18,1,3,0,1,1
3535066,-5507,-827,-3582,-4481,175,-3582,4484.4,177.76,189.98,2031,-5870,-10554,-2444,2736,5035,34.1351292,-118.1457429,1.95,171.97,1.42,18,1,3,0,1,1
3535076,-5507,-827,-3582,-4481,175,-3582,4484.4,177.76,189.98,2020,-5555,-10438,-1167,1327,4729,34.1351292,-118.1457429,1.95,171.97,1.42,18,1,3,0,1,1
3535086,-5507,-827,-3582,-4481,175,-3582,4484.4,177.76,189.98,1891,-5165,-9978,-59,-87,4295,34.1351292,-118.1457429,1.95,171.97,1.42,18,1,3,0,1,1
3535096,-5507,-827,-3582,-4481,175,-3582,4484.4,177.76,189.98,1514,-4612,-8783,1007,-1499,3250,34.1351292,-118.1457429,1.95,171.97,1.42,18,1,3,0,1,1
3535106,-5507,-827,-3582,-4481,175,-3582,4484.4,177.76,189.98,1238,-4411,-7886,1414,-1858,2266,34.1351292,-118.1457429,1.95,171.97,1.42,18,1,3,0,1,1
3535116,-5507,-827,-3582,-4481,175,-3582,4484.4,177.76,189.98,990,-4372,-7054,1867,-1868,1214,34.1351292,-118.1457429,1.95,171.97,1.42,18,1,3,0,1,1
3535126,-5507,-827,-3582,-4481,175,-3582,4484.4,177.76,189.98,813,-4428,-6244,2446,-1732,208,34.1351292,-118.1457429,1.95,171.97,1.42,18,1,3,0,1,1
3535136,-5507,-827,-3582,-4481,175,-3582,4484.4,177.76,189.98,658,-4714,-5006,2959,-1605,-1086,34.1351292,-118.1457429,1.95,171.97,1.42,18,1,3,0,1,1
3535146,-5507,-827,-3582,-4481,175,-3582,4484.4,177.76,189.98,536,-5023,-4216,2938,-1655,-1783,34.1351292,-118.1457429,1.95,171.97,1.42,18,1,3,0,1,1
3535156,-5507,-827,-3582,-4481,175,-3582,4484.4,177.76,189.98,393,-5359,-3534,2535,-1786,-2144,34.1351292,-118.1457429,1.95,171.97,1.42,18,1,3,0,1,1
3535166,-5515,-780,-3435,-4489,222,-3435,4494.5,177.17,189.38,262,-5721,-2988,1635,-1905,-2105,34.1351287,-118.1457429,2.05,170.67,1.42,18,1,3,0,1,1
3535176,-5515,-780,-3435,-4489,222,-3435,4494.5,177.17,189.38,175,-6128,-2473,74,-1791,-1197,34.1351287,-118.1457429,2.05,170.67,1.42,18,1,3,0,1,1
3535186,-5515,-780,-3435,-4489,222,-3435,4494.5,177.17,189.38,174,-6166,-2352,-552,-1350,-66,34.1351287,-118.1457429,2.05,170.67,1.42,18,1,3,0,1,1
3535196,-5515,-780,-3435,-4489,222,-3435,4494.5,177.17,189.38,190,-6038,-2393,-803,-568,1297,34.1351287,-118.1457429,2.05,170.67,1.42,18,1,3,0,1,1
3535206,-5515,-780,-3435,-4489,222,-3435,4494.5,177.17,189.38,235,-5741,-2617,-692,474,2686,34.1351287,-118.1457429,2.05,170.67,1.42,18,1,3,0,1,1
3535216,-5515,-780,-3435,-4489,222,-3435,4494.5,177.17,189.38,291,-5008,-3152,140,1921,4320,34.1351287,-118.1457429,2.05,170.67,1.42,18,1,3,0,1,1
3535226,-5515,-780,-3435,-4489,222,-3435,4494.5,177.17,189.38,239,-4508,-3488,872,2520,4822,34.1351287,-118.1457429,2.05,170.67,1.42,18,1,3,0,1,1
3535236,-5515,-780,-3435,-4489,222,-3435,4494.5,177.17,189.38,105,-4166,-3780,1352,2744,4906,34.1351287,-118.1457429,2.05,170.67,1.42,18,1,3,0,1,1
3535246,-5515,-780,-3435,-4489,222,-3435,4494.5,177.17,189.38,-32,-4012,-3980,1596,2567,4768,34.1351287,-118.1457429,2.05,170.67,1.42,18,1,3,0,1,1
3535256,-5515,-780,-3435,-4489,222,-3435,4494.5,177.17,189.38,-92,-3926,-4051,2049,1644,4448,34.1351287,-118.1457429,2.05,170.67,1.42,18,1,3,0,1,1
3535266,-5530,-1017,-3307,-4504,-15,-3307,4504.0,180.19,192.41,-94,-3811,-3986,2474,844,4283,34.1351279,-118.1457429,2.27,171.10,1.42,18,1,3,0,1,1
3535276,-5530,-1017,-3307,-4504,-15,-3307,4504.0,180.19,192.41,-117,-3671,-3827,2740,38,4127,34.1351279,-118.1457429,2.27,171.10,1.42,18,1,3,0,1,1
3535286,-5530,-1017,-3307,-4504,-15,-3307,4504.0,180.19,192.41,-181,-3592,-3608,2686,-788,3988,34.1351279,-118.1457429,2.27,171.10,1.42,18,1,3,0,1,1
3535296,-5530,-1017,-3307,-4504,-15,-3307,4504.0,180.19,192.41,-365,-3554,-3251,2151,-1903,3710,34.1351279,-118.1457429,2.27,171.10,1.42,18,1,3,0,1,1
3535306,-5530,-1017,-3307,-4504,-15,-3307,4504.0,180.19,192.41,-549,-3518,-3011,1903,-2318,3396,34.1351279,-118.1457429,2.27,171.10,1.42,18,1,3,0,1,1
3535316,-5530,-1017,-3307,-4504,-15,-3307,4504.0,180.19,192.41,-732,-3506,-2808,1767,-2467,2969,34.1351279,-118.1457429,2.27,171.10,1.42,18,1,3,0,1,1
3535326,-5530,-1017,-3307,-4504,-15,-3307,4504.0,180.19,192.41,-875,-3565,-2670,1539,-2448,2405,34.1351279,-118.1457429,2.27,171.10,1.42,18,1,3,0,1,1
3535336,-5530,-1017,-3307,-4504,-15,-3307,4504.0,180.19,192.41,-1013,-3697,-2585,1046,-2203,1318,34.1351279,-118.1457429,2.27,171.10,1.42,18,1,3,0,1,1
3535346,-5530,-1017,-3307,-4504,-15,-3307,4504.0,180.19,192.41,-1036,-3755,-2576,965,-2045,474,34.1351279,-118.1457429,2.27,171.10,1.42,18,1,3,0,1,1
3535356,-5530,-1017,-3307,-4504,-15,-3307,4504.0,180.19,192.41,-1020,-3833,-2571,1138,-1956,-388,34.1351279,-118.1457429,2.27,171.10,1.42,18,1,3,0,1,1
3535366,-5657,-1185,-3430,-4631,-183,-3430,4634.6,182.26,194.48,-951,-3970,-2552,1246,-1949,-1258,34.1351272,-118.1457431,2.21,176.05,1.42,18,1,3,0,1,1
3535376,-5657,-1185,-3430,-4631,-183,-3430,4634.6,182.26,194.48,-770,-4304,-2484,1124,-2075,-2454,34.1351272,-118.1457431,2.21,176.05,1.42,18,1,3,0,1,1
3535386,-5657,-1185,-3430,-4631,-183,-3430,4634.6,182.26,194.48,-655,-4548,-2431,835,-2196,-3092,34.1351272,-118.1457431,2.21,176.05,1.42,18,1,3,0,1,1
3535396,-5657,-1185,-3430,-4631,-183,-3430,4634.6,182.26,194.48,-541,-4725,-2410,270,-2217,-3553,34.1351272,-118.1457431,2.21,176.05,1.42,18,1,3,0,1,1
3535406,-5657,-1185,-3430,-4631,-183,-3430,4634.6,182.26,194.48,-371,-4859,-2467,-496,-2061,-3871,34.1351272,-118.1457431,2.21,176.05,1.42,18,1,3,0,1,1
3535416,-5657,-1185,-3430,-4631,-183,-3430,4634.6,182.26,194.48,-21,-5051,-2785,-1793,-1561,-4092,34.1351272,-118.1457431,2.21,176.05,1.42,18,1,3,0,1,1
3535426,-5657,-1185,-3430,-4631,-183,-3430,4634.6,182.26,194.48,229,-5233,-3182,-2830,-1095,-4022,34.1351272,-118.1457431,2.21,176.05,1.42,18,1,3,0,1,1
3535436,-5657,-1185,-3430,-4631,-183,-3430,4634.6,182.26,194.48,432,-5500,-3794,-4160,-448,-3747,34.1351272,-118.1457431,2.21,176.05,1.42,18,1,3,0,1,1
3535446,-5657,-1185,-3430,-4631,-183,-3430,4634.6,182.26,194.48,508,-5848,-4659,-5666,312,-3165,34.1351272,-118.1457431,2.21,176.05,1.42,18,1,3,0,1,1
3535456,-5657,-1185,-3430,-4631,-183,-3430,4634.6,182.26,194.48,430,-6562,-6227,-7384,1037,-2321,34.1351272,-118.1457431,2.21,176.05,1.42,18,1,3,0,1,1
3535466,-5477,-962,-3500,-4451,40,-3500,4451.2,179.49,191.70,358,-7016,-7225,-7742,1217,-2305,34.1351263,-118.1457431,2.50,176.17,1.42,18,1,3,0,1,1
3535476,-5477,-962,-3500,-4451,40,-3500,4451.2,179.49,191.70,323,-7316,-8142,-7715,1406,-2365,34.1351263,-118.1457431,2.50,176.17,1.42,18,1,3,0,1,1
3535486,-5477,-962,-3500,-4451,40,-3500,4451.2,179.49,191.70,276,-7573,-8973,-7209,1346,-2079,34.1351263,-118.1457431,2.50,176.17,1.42,18,1,3,0,1,1
3535496,-5477,-962,-3500,-4451,40,-3500,4451.2,179.49,191.70,-28,-7920,-9975,-6947,955,-1908,34.1351263,-118.1457431,2.50,176.17,1.42,18,1,3,0,1,1
3535506,-5477,-962,-3500,-4451,40,-3500,4451.2,179.49,191.70,-219,-8022,-10533,-6726,805,-1910,34.1351263,-118.1457431,2.50,176.17,1.42,18,1,3,0,1,1
3535516,-5477,-962,-3500,-4451,40,-3500,4451.2,179.49,191.70,-198,-8017,-11108,-6416,1163,-1979,34.1351263,-118.1457431,2.50,176.17,1.42,18,1,3,0,1,1
3535526,-5477,-962,-3500,-4451,40,-3500,4451.2,179.49,191.70,47,-7906,-11746,-5719,1778,-2013,34.1351263,-118.1457431,2.50,176.17,1.42,18,1,3,0,1,1
3535536,-5477,-962,-3500,-4451,40,-3500,4451.2,179.49,191.70,755,-7533,-12598,-3648,2235,-2263,34.1351263,-118.1457431,2.50,176.17,1.42,18,1,3,0,1,1
3535546,-5477,-962,-3500,-4451,40,-3500,4451.2,179.49,191.70,1155,-7418,-12848,-1624,1607,-2718,34.1351263,-118.1457431,2.50,176.17,1.42,18,1,3,0,1,1
3535556,-5477,-962,-3500,-4451,40,-3500,4451.2,179.49,191.70,1233,-7416,-12621,603,279,-3159,34.1351263,-118.1457431,2.50,176.17,1.42,18,1,3,0,1,1
3535566,-5402,-815,-3707,-4376,187,-3707,4380.0,177.55,189.77,1038,-7371,-11809,3260,-2298,-3394,34.1351257,-118.1457433,1.58,174.97,1.42,18,1,3,0,1,1
3535576,-5402,-815,-3707,-4376,187,-3707,4380.0,177.55,189.77,379,-7129,-9854,3983,-3720,-3139,34.1351257,-118.1457433,1.58,174.97,1.42,18,1,3,0,1,1
3535586,-5402,-815,-3707,-4376,187,-3707,4380.0,177.55,189.77,-157,-6870,-8610,3859,-4454,-2672,34.1351257,-118.1457433,1.58,174.97,1.42,18,1,3,0,1,1
3535596,-5402,-815,-3707,-4376,187,-3707,4380.0,177.55,189.77,-584,-6543,-7622,3187,-4540,-2159,34.1351257,-118.1457433,1.58,174.97,1.42,18,1,3,0,1,1
3535606,-5402,-815,-3707,-4376,187,-3707,4380.0,177.55,189.77,-907,-6266,-6890,2256,-4042,-1050,34.1351257,-118.1457433,1.58,174.97,1.42,18,1,3,0,1,1
3535616,-5402,-815,-3707,-4376,187,-3707,4380.0,177.55,189.77,-1230,-5986,-6357,741,-2131,-456,34.1351257,-118.1457433,1.58,174.97,1.42,18,1,3,0,1,1
3535626,-5402,-815,-3707,-4376,187,-3707,4380.0,177.55,189.77,-1224,-5748,-6451,-66,-442,301,34.1351257,-118.1457433,1.58,174.97,1.42,18,1,3,0,1,1
3535636,-5402,-815,-3707,-4376,187,-3707,4380.0,177.55,189.77,-1004,-5370,-6801,-75,1122,849,34.1351257,-118.1457433,1.58,174.97,1.42,18,1,3,0,1,1
3535646,-5402,-815,-3707,-4376,187,-3707,4380.0,177.55,189.77,-678,-4896,-7388,1397,2406,938,34.1351257,-118.1457433,1.58,174.97,1.42,18,1,3,0,1,1
3535656,-5402,-815,-3707,-4376,187,-3707,4380.0,177.55,189.77,-307,-4230,-7175,2578,2583,591,34.1351257,-118.1457433,1.58,174.97,1.42,18,1,3,0,1,1
3535666,-5475,-795,-3647,-4449,207,-3647,4453.8,177.34,189.55,-55,-3772,-6962,3554,2411,-94,34.1351249,-118.1457434,0.70,172.87,1.42,18,1,3,0,1,1
3535676,-5475,-795,-3647,-4449,207,-3647,4453.8,177.34,189.55,220,-3365,-6594,4526,1874,-1131,34.1351249,-118.1457434,0.70,172.87,1.42,18,1,3,0,1,1
3535686,-5475,-795,-3647,-4449,207,-3647,4453.8,177.34,189.55,426,-3143,-5815,6068,495,-2792,34.1351249,-118.1457434,0.70,172.87,1.42,18,1,3,0,1,1
3535696,-5475,-795,-3647,-4449,207,-3647,4453.8,177.34,189.55,679,-3081,-5025,6928,-353,-3687,34.1351249,-118.1457434,0.70,172.87,1.42,18,1,3,0,1,1
3535706,-5475,-795,-3647,-4449,207,-3647,4453.8,177.34,189.55,864,-3116,-4251,7629,-965,-4271,34.1351249,-118.1457434,0.70,172.87,1.42,18,1,3,0,1,1
3535716,-5475,-795,-3647,-4449,207,-3647,4453.8,177.34,189.55,1057,-3148,-3502,8045,-1491,-4536,34.1351249,-118.1457434,0.70,172.87,1.42,18,1,3,0,1,1
3535726,-5475,-795,-3647,-4449,207,-3647,4453.8,177.34,189.55,1340,-3146,-2413,7985,-1995,-4615,34.1351249,-118.1457434,0.70,172.87,1.42,18,1,3,0,1,1
3535736,-5475,-795,-3647,-4449,207,-3647,4453.8,177.34,189.55,1524,-3140,-1735,7673,-2012,-4563,34.1351249,-118.1457434,0.70,172.87,1.42,18,1,3,0,1,1
3535746,-5475,-795,-3647,-4449,207,-3647,4453.8,177.34,189.55,1677,-3128,-1163,7234,-1808,-4377,34.1351249,-118.1457434,0.70,172.87,1.42,18,1,3,0,1,1
3535756,-5475,-795,-3647,-4449,207,-3647,4453.8,177.34,189.55,1743,-3094,-767,6526,-1408,-3987,34.1351249,-118.1457434,0.70,172.87,1.42,18,1,3,0,1,1
3535766,-5475,-472,-3177,-4449,530,-3177,4480.5,173.21,185.42,1681,-3099,-478,4950,-300,-3069,34.1351240,-118.1457435,1.02,174.45,1.42,18,1,3,0,1,1
3535776,-5475,-472,-3177,-4449,530,-3177,4480.5,173.21,185.42,1588,-3166,-487,3797,749,-2332,34.1351240,-118.1457435,1.02,174.45,1.42,18,1,3,0,1,1
3535786,-5475,-472,-3177,-4449,530,-3177,4480.5,173.21,185.42,1486,-3221,-649,2857,1777,-1530,34.1351240,-118.1457435,1.02,174.45,1.42,18,1,3,0,1,1
3535796,-5475,-472,-3177,-4449,530,-3177,4480.5,173.21,185.42,1379,-3226,-945,2268,2645,-747,34.1351240,-118.1457435,1.02,174.45,1.42,18,1,3,0,1,1
3535806,-5475,-472,-3177,-4449,530,-3177,4480.5,173.21,185.42,1230,-3163,-1527,1990,3675,212,34.1351240,-118.1457435,1.02,174.45,1.42,18,1,3,0,1,1
3535816,-5475,-472,-3177,-4449,530,-3177,4480.5,173.21,185.42,1142,-3148,-1904,2043,3975,676,34.1351240,-118.1457435,1.02,174.45,1.42,18,1,3,0,1,1
3535826,-5475,-472,-3177,-4449,530,-3177,4480.5,173.21,185.42,1026,-3167,-2217,2097,3765,1027,34.1351240,-118.1457435,1.02,174.45,1.42,18,1,3,0,1,1
3535836,-5475,-472,-3177,-4449,530,-3177,4480.5,173.21,185.42,838,-3224,-2438,1954,3169,1338,34.1351240,-118.1457435,1.02,174.45,1.42,18,1,3,0,1,1
3535846,-5475,-472,-3177,-4449,530,-3177,4480.5,173.21,185.42,495,-3397,-2666,1253,2244,1949,34.1351240,-118.1457435,1.02,174.45,1.42,18,1,3,0,1,1
3535856,-5475,-472,-3177,-4449,530,-3177,4480.5,173.21,185.42,308,-3483,-2810,753,1614,2336,34.1351240,-118.1457435,1.02,174.45,1.42,18,1,3,0,1,1
3535866,-5632,-620,-3052,-4606,382,-3052,4621.8,175.26,187.48,165,-3526,-2932,501,993,2634,34.1351231,-118.1457437,1.39,162.06,1.42,18,1,3,0,1,1
3535876,-5632,-620,-3052,-4606,382,-3052,4621.8,175.26,187.48,51,-3586,-3014,389,483,2821,34.1351231,-118.1457437,1.39,162.06,1.42,18,1,3,0,1,1
3535886,-5632,-620,-3052,-4606,382,-3052,4621.8,175.26,187.48,-39,-3762,-3055,-5,-159,2696,34.1351231,-118.1457437,1.39,162.06,1.42,18,1,3,0,1,1
3535896,-5632,-620,-3052,-4606,382,-3052,4621.8,175.26,187.48,-59,-3971,-3003,-445,-542,2544,34.1351231,-118.1457437,1.39,162.06,1.42,18,1,3,0,1,1
3535906,-5632,-620,-3052,-4606,382,-3052,4621.8,175.26,187.48,-103,-4254,-2917,-1169,-1009,2406,34.1351231,-118.1457437,1.39,162.06,1.42,18,1,3,0,1,1
3535916,-5632,-620,-3052,-4606,382,-3052,4621.8,175.26,187.48,-165,-4601,-2873,-2383,-1517,2195,34.1351231,-118.1457437,1.39,162.06,1.42,18,1,3,0,1,1
3535926,-5632,-620,-3052,-4606,382,-3052,4621.8,175.26,187.48,-235,-5222,-3010,-4699,-1718,1758,34.1351231,-118.1457437,1.39,162.06,1.42,18,1,3,0,1,1
3535936,-5632,-620,-3052,-4606,382,-3052,4621.8,175.26,187.48,-277,-5775,-3277,-5905,-1379,1412,34.1351231,-118.1457437,1.39,162.06,1.42,18,1,3,0,1,1
3535946,-5632,-620,-3052,-4606,382,-3052,4621.8,175.26,187.48,-297,-6475,-3637,-6779,-1124,929,34.1351231,-118.1457437,1.39,162.06,1.42,18,1,3,0,1,1
3535956,-5632,-620,-3052,-4606,382,-3052,4621.8,175.26,187.48,-261,-7137,-3959,-7438,-1134,319,34.1351231,-118.1457437,1.39,162.06,1.42,18,1,3,0,1,1
3535966,-5492,-732,-3392,-4466,270,-3392,4474.2,176.54,188.76,-189,-7773,-4302,-8701,-950,0,34.1351224,-118.1457438,0.78,160.31,1.42,18,1,3,0,1,1
3535976,-5492,-732,-3392,-4466,270,-3392,4474.2,176.54,188.76,-158,-8021,-4645,-10232,-419,675,34.1351224,-118.1457438,0.78,160.31,1.42,18,1,3,0,1,1
3535986,-5492,-732,-3392,-4466,270,-3392,4474.2,176.54,188.76,-107,-8216,-5296,-12259,297,1790,34.1351224,-118.1457438,0.78,160.31,1.42,18,1,3,0,1,1
3535996,-5492,-732,-3392,-4466,270,-3392,4474.2,176.54,188.76,0,-8302,-6311,-14484,1211,3056,34.1351224,-118.1457438,0.78,160.31,1.42,18,1,3,0,1,1
3536006,-5492,-732,-3392,-4466,270,-3392,4474.2,176.54,188.76,402,-8020,-8446,-17162,2767,4863,34.1351224,-118.1457438,0.78,160.31,1.42,18,1,3,0,1,1
3536016,-5492,-732,-3392,-4466,270,-3392,4474.2,176.54,188.76,781,-7690,-10082,-17693,3455,5706,34.1351224,-118.1457438,0.78,160.31,1.42,18,1,3,0,1,1
3536026,-5492,-732,-3392,-4466,270,-3392,4474.2,176.54,188.76,1076,-7396,-11590,-16787,3508,6060,34.1351224,-118.1457438,0.78,160.31,1.42,18,1,3,0,1,1
3536036,-5492,-732,-3392,-4466,270,-3392,4474.2,176.54,188.76,1304,-7115,-12809,-14535,2972,5901,34.1351224,-118.1457438,0.78,160.31,1.42,18,1,3,0,1,1
3536046,-5492,-732,-3392,-4466,270,-3392,4474.2,176.54,188.76,1715,-6574,-13855,-9820,1152,5070,34.1351224,-118.1457438,0.78,160.31,1.42,18,1,3,0,1,1
3536056,-5492,-732,-3392,-4466,270,-3392,4474.2,176.54,188.76,1939,-6167,-13917,-6417,-457,4290,34.1351224,-118.1457438,0.78,160.31,1.42,18,1,3,0,1,1
3536066,-5380,-945,-4122,-4354,57,-4122,4354.4,179.25,191.47,2027,-5716,-13470,-3102,-1928,3434,34.1351218,-118.1457438,0.59,0.00,1.42,18,1,3,0,1,1
3536076,-5380,-945,-4122,-4354,57,-4122,4354.4,179.25,191.47,1960,-5204,-12621,-200,-2906,2953,34.1351218,-118.1457438,0.59,0.00,1.42,18,1,3,0,1,1
3536086,-5380,-945,-4122,-4354,57,-4122,4354.4,179.25,191.47,1707,-4467,-10890,3043,-3108,2904,34.1351218,-118.1457438,0.59,0.00,1.42,18,1,3,0,1,1
3536096,-5380,-945,-4122,-4354,57,-4122,4354.4,179.25,191.47,1419,-4116,-9747,4392,-2544,2895,34.1351218,-118.1457438,0.59,0.00,1.42,18,1,3,0,1,1
3536106,-5380,-945,-4122,-4354,57,-4122,4354.4,179.25,191.47,1104,-3841,-8707,5365,-1785,2827,34.1351218,-118.1457438,0.59,0.00,1.42,18,1,3,0,1,1
3536116,-5380,-945,-4122,-4354,57,-4122,4354.4,179.25,191.47,853,-3580,-7699,6271,-1191,2603,34.1351218,-118.1457438,0.59,0.00,1.42,18,1,3,0,1,1
3536126,-5380,-945,-4122,-4354,57,-4122,4354.4,179.25,191.47,528,-3366,-6181,7327,-994,1686,34.1351218,-118.1457438,0.59,0.00,1.42,18,1,3,0,1,1
3536136,-5380,-945,-4122,-4354,57,-4122,4354.4,179.25,191.47,297,-3439,-5141,7791,-1223,677,34.1351218,-118.1457438,0.59,0.00,1.42,18,1,3,0,1,1
3536146,-5380,-945,-4122,-4354,57,-4122,4354.4,179.25,191.47,86,-3691,-4079,8013,-1609,-388,34.1351218,-118.1457438,0.59,0.00,1.42,18,1,3,0,1,1
3536156,-5380,-945,-4122,-4354,57,-4122,4354.4,179.25,191.47,-80,-4068,-3075,7704,-2054,-1221,34.1351218,-118.1457438,0.59,0.00,1.42,18,1,3,0,1,1
3536166,-5550,-1095,-3690,-4524,-93,-3690,4525.0,181.18,193.39,-245,-4645,-1853,5860,-2619,-1588,34.1351211,-118.1457438,0.93,0.00,1.42,18,1,3,0,1,1
3536176,-5550,-1095,-3690,-4524,-93,-3690,4525.0,181.18,193.39,-308,-4921,-1294,3853,-2652,-1167,34.1351211,-118.1457438,0.93,0.00,1.42,18,1,3,0,1,1
3536186,-5550,-1095,-3690,-4524,-93,-3690,4525.0,181.18,193.39,-343,-5102,-990,1577,-2358,-209,34.1351211,-118.1457438,0.93,0.00,1.42,18,1,3,0,1,1
3536196,-5550,-1095,-3690,-4524,-93,-3690,4525.0,181.18,193.39,-363,-5190,-984,-517,-1670,1091,34.1351211,-118.1457438,0.93,0.00,1.42,18,1,3,0,1,1
3536206,-5550,-1095,-3690,-4524,-93,-3690,4525.0,181.18,193.39,-391,-5048,-1587,-2191,297,3016,34.1351211,-118.1457438,0.93,0.00,1.42,18,1,3,0,1,1
3536216,-5550,-1095,-3690,-4524,-93,-3690,4525.0,181.18,193.39,-359,-4723,-2239,-1943,1829,3923,34.1351211,-118.1457438,0.93,0.00,1.42,18,1,3,0,1,1
3536226,-5550,-1095,-3690,-4524,-93,-3690,4525.0,181.18,193.39,-272,-4269,-2862,-1054,3067,4301,34.1351211,-118.1457438,0.93,0.00,1.42,18,1,3,0,1,1
3536236,-5550,-1095,-3690,-4524,-93,-3690,4525.0,181.18,193.39,-203,-3882,-3381,-211,3859,4296,34.1351211,-118.1457438,0.93,0.00,1.42,18,1,3,0,1,1
3536246,-5550,-1095,-3690,-4524,-93,-3690,4525.0,181.18,193.39,-172,-3581,-3981,711,4233,3963,34.1351211,-118.1457438,0.93,0.00,1.42,18,1,3,0,1,1
3536256,-5550,-1095,-3690,-4524,-93,-3690,4525.0,181.18,193.39,-143,-3438,-4226,1286,3955,3639,34.1351211,-118.1457438,0.93,0.00,1.42,18,1,3,0,1,1
3536266,-5492,-1185,-3750,-4466,-183,-3750,4469.7,182.35,194.56,-117,-3307,-4340,1665,3304,3331,34.1351202,-118.1457439,1.19,188.97,1.42,18,1,3,0,1,1
3536276,-5492,-1185,-3750,-4466,-183,-3750,4469.7,182.35,194.56,-149,-3200,-4337,1868,2328,3023,34.1351202,-118.1457439,1.19,188.97,1.42,18,1,3,0,1,1
3536286,-5492,-1185,-3750,-4466,-183,-3750,4469.7,182.35,194.56,-349,-3088,-4065,1952,562,2539,34.1351202,-118.1457439,1.19,188.97,1.42,18,1,3,0,1,1
3536296,-5492,-1185,-3750,-4466,-183,-3750,4469.7,182.35,194.56,-553,-3035,-3735,1742,-501,2152,34.1351202,-118.1457439,1.19,188.97,1.42,18,1,3,0,1,1
3536306,-5492,-1185,-3750,-4466,-183,-3750,4469.7,182.35,194.56,-791,-2998,-3386,1299,-1393,1709,34.1351202,-118.1457439,1.19,188.97,1.42,18,1,3,0,1,1
3536316,-5492,-1185,-3750,-4466,-183,-3750,4469.7,182.35,194.56,-1140,-3024,-2980,589,-2147,820,34.1351202,-118.1457439,1.19,188.97,1.42,18,1,3,0,1,1
3536326,-5492,-1185,-3750,-4466,-183,-3750,4469.7,182.35,194.56,-1292,-3150,-2831,274,-2125,83,34.1351202,-118.1457439,1.19,188.97,1.42,18,1,3,0,1,1
3536337,-5492,-1185,-3750,-4466,-183,-3750,4469.7,182.35,194.56,-1371,-3319,-2793,-137,-1957,-681,34.1351202,-118.1457439,1.19,188.97,1.42,18,1,3,0,1,1
3536346,-5492,-1185,-3750,-4466,-183,-3750,4469.7,182.35,194.56,-1375,-3485,-2865,-566,-1834,-1617,34.1351202,-118.1457439,1.19,188.97,1.42,18,1,3,0,1,1
3536356,-5492,-1185,-3750,-4466,-183,-3750,4469.7,182.35,194.56,-1277,-3791,-3044,-833,-1764,-3257,34.1351202,-118.1457439,1.19,188.97,1.42,18,1,3,0,1,1
3536366,-5432,-1170,-3512,-4406,-168,-3512,4409.2,182.18,194.40,-1154,-4106,-3129,-801,-1970,-4274,34.1351194,-118.1457442,1.45,193.90,1.42,18,1,3,0,1,1
3536376,-5432,-1170,-3512,-4406,-168,-3512,4409.2,182.18,194.40,-984,-4486,-3186,-963,-2321,-5177,34.1351194,-118.1457442,1.45,193.90,1.42,18,1,3,0,1,1
3536386,-5432,-1170,-3512,-4406,-168,-3512,4409.2,182.18,194.40,-745,-4864,-3270,-1594,-2589,-5856,34.1351194,-118.1457442,1.45,193.90,1.42,18,1,3,0,1,1
3536396,-5432,-1170,-3512,-4406,-168,-3512,4409.2,182.18,194.40,-469,-5537,-3590,-2914,-2818,-6064,34.1351194,-118.1457442,1.45,193.90,1.42,18,1,3,0,1,1
3536406,-5432,-1170,-3512,-4406,-168,-3512,4409.2,182.18,194.40,-133,-5926,-3957,-3841,-2898,-5622,34.1351194,-118.1457442,1.45,193.90,1.42,18,1,3,0,1,1
3536416,-5432,-1170,-3512,-4406,-168,-3512,4409.2,182.18,194.40,72,-6145,-4455,-5026,-2902,-4899,34.1351194,-118.1457442,1.45,193.90,1.42,18,1,3,0,1,1
3536426,-5432,-1170,-3512,-4406,-168,-3512,4409.2,182.18,194.40,290,-6178,-5143,-6585,-2756,-4057,34.1351194,-118.1457442,1.45,193.90,1.42,18,1,3,0,1,1
3536436,-5432,-1170,-3512,-4406,-168,-3512,4409.2,182.18,194.40,521,-6198,-6579,-9196,-2254,-2847,34.1351194,-118.1457442,1.45,193.90,1.42,18,1,3,0,1,1
3536446,-5432,-1170,-3512,-4406,-168,-3512,4409.2,182.18,194.40,760,-6494,-7657,-10459,-2397,-2402,34.1351194,-118.1457442,1.45,193.90,1.42,18,1,3,0,1,1
3536456,-5432,-1170,-3512,-4406,-168,-3512,4409.2,182.18,194.40,696,-6985,-8615,-10916,-2756,-2432,34.1351194,-118.1457442,1.45,193.90,1.42,18,1,3,0,1,1
3536466,-5440,-1127,-4005,-4414,-125,-4005,4415.8,181.62,193.84,491,-7414,-9394,-10675,-2751,-2570,34.1351186,-118.1457445,0.79,199.04,1.42,18,1,3,0,1,1
3536476,-5440,-1127,-4005,-4414,-125,-4005,4415.8,181.62,193.84,338,-7766,-10416,-9471,-2225,-2349,34.1351186,-118.1457445,0.79,199.04,1.42,18,1,3,0,1,1
3536486,-5440,-1127,-4005,-4414,-125,-4005,4415.8,181.62,193.84,559,-7724,-10866,-8402,-2127,-2132,34.1351186,-118.1457445,0.79,199.04,1.42,18,1,3,0,1,1
3536496,-5440,-1127,-4005,-4414,-125,-4005,4415.8,181.62,193.84,891,-7555,-10994,-7509,-2335,-2107,34.1351186,-118.1457445,0.79,199.04,1.42,18,1,3,0,1,1
3536506,-5440,-1127,-4005,-4414,-125,-4005,4415.8,181.62,193.84,1157,-7312,-10956,-7093,-2613,-2102,34.1351186,-118.1457445,0.79,199.04,1.42,18,1,3,0,1,1
3536516,-5440,-1127,-4005,-4414,-125,-4005,4415.8,181.62,193.84,1388,-6903,-10879,-7351,-2815,-1840,34.1351186,-118.1457445,0.79,199.04,1.42,18,1,3,0,1,1
3536526,-5440,-1127,-4005,-4414,-125,-4005,4415.8,181.62,193.84,1443,-6476,-10834,-7438,-2608,-1580,34.1351186,-118.1457445,0.79,199.04,1.42,18,1,3,0,1,1
3536536,-5440,-1127,-4005,-4414,-125,-4005,4415.8,181.62,193.84,1451,-5931,-10732,-6980,-2312,-991,34.1351186,-118.1457445,0.79,199.04,1.42,18,1,3,0,1,1
3536546,-5440,-1127,-4005,-4414,-125,-4005,4415.8,181.62,193.84,1333,-5524,-10573,-5822,-2150,-364,34.1351186,-118.1457445,0.79,199.04,1.42,18,1,3,0,1,1
3536556,-5440,-1127,-4005,-4414,-125,-4005,4415.8,181.62,193.84,783,-5101,-9974,-2356,-1694,-331,34.1351186,-118.1457445,0.79,199.04,1.42,18,1,3,0,1,1
3536566,-5267,-960,-4355,-4241,42,-4355,4241.2,179.43,191.65,275,-4934,-9186,529,-1114,-394,34.1351177,-118.1457446,0.66,0.00,1.43,17,1,3,0,1,1
3536576,-5267,-960,-4355,-4241,42,-4355,4241.2,179.43,191.65,-229,-4896,-8237,2820,-492,-257,34.1351177,-118.1457446,0.66,0.00,1.43,17,1,3,0,1,1
3536586,-5267,-960,-4355,-4241,42,-4355,4241.2,179.43,191.65,-656,-4887,-7362,3634,-35,21,34.1351177,-118.1457446,0.66,0.00,1.43,17,1,3,0,1,1
3536596,-5267,-960,-4355,-4241,42,-4355,4241.2,179.43,191.65,-1210,-4830,-6531,2033,177,1097,34.1351177,-118.1457446,0.66,0.00,1.43,17,1,3,0,1,1
3536606,-5267,-960,-4355,-4241,42,-4355,4241.2,179.43,191.65,-1475,-4738,-6159,-79,117,2460,34.1351177,-118.1457446,0.66,0.00,1.43,17,1,3,0,1,1
3536616,-5267,-960,-4355,-4241,42,-4355,4241.2,179.43,191.65,-1698,-4435,-5935,-2229,-3,3774,34.1351177,-118.1457446,0.66,0.00,1.43,17,1,3,0,1,1
3536626,-5267,-960,-4355,-4241,42,-4355,4241.2,179.43,191.65,-1918,-3927,-5917,-3824,-52,4580,34.1351177,-118.1457446,0.66,0.00,1.43,17,1,3,0,1,1
3536636,-5267,-960,-4355,-4241,42,-4355,4241.2,179.43,191.65,-2079,-3081,-6056,-4827,174,4733,34.1351177,-118.1457446,0.66,0.00,1.43,17,1,3,0,1,1
3536646,-5267,-960,-4355,-4241,42,-4355,4241.2,179.43,191.65,-2063,-2561,-6106,-4853,443,4135,34.1351177,-118.1457446,0.66,0.00,1.43,17,1,3,0,1,1
3536656,-5267,-960,-4355,-4241,42,-4355,4241.2,179.43,191.65,-2032,-2138,-6126,-4306,840,3128,34.1351177,-118.1457446,0.66,0.00,1.43,17,1,3,0,1,1
3536666,-5262,-1220,-4437,-4236,-218,-4437,4241.6,182.95,195.16,-1966,-1815,-6136,-3139,1311,1847,34.1351169,-118.1457449,0.50,0.00,1.42,18,1,3,0,1,1
3536676,-5262,-1220,-4437,-4236,-218,-4437,4241.6,182.95,195.16,-1600,-1474,-6027,-245,2122,-683,34.1351169,-118.1457449,0.50,0.00,1.42,18,1,3,0,1,1
3536686,-5262,-1220,-4437,-4236,-218,-4437,4241.6,182.95,195.16,-1192,-1384,-5779,2085,2472,-2585,34.1351169,-118.1457449,0.50,0.00,1.42,18,1,3,0,1,1
3536696,-5262,-1220,-4437,-4236,-218,-4437,4241.6,182.95,195.16,-773,-1508,-5400,3907,2411,-4271,34.1351169,-118.1457449,0.50,0.00,1.42,18,1,3,0,1,1
3536706,-5262,-1220,-4437,-4236,-218,-4437,4241.6,182.95,195.16,-438,-1816,-4936,4740,2079,-5488,34.1351169,-118.1457449,0.50,0.00,1.42,18,1,3,0,1,1
3536716,-5262,-1220,-4437,-4236,-218,-4437,4241.6,182.95,195.16,21,-2145,-4209,4848,1586,-6452,34.1351169,-118.1457449,0.50,0.00,1.42,18,1,3,0,1,1
3536726,-5262,-1220,-4437,-4236,-218,-4437,4241.6,182.95,195.16,328,-2227,-3807,5292,1430,-6648,34.1351169,-118.1457449,0.50,0.00,1.42,18,1,3,0,1,1
3536736,-5262,-1220,-4437,-4236,-218,-4437,4241.6,182.95,195.16,604,-2393,-3471,6288,1469,-6584,34.1351169,-118.1457449,0.50,0.00,1.42,18,1,3,0,1,1
3536746,-5262,-1220,-4437,-4236,-218,-4437,4241.6,182.95,195.16,873,-2632,-3179,7178,1720,-6336,34.1351169,-118.1457449,0.50,0.00,1.42,18,1,3,0,1,1
3536756,-5262,-1220,-4437,-4236,-218,-4437,4241.6,182.95,195.16,1242,-2961,-2949,7126,2426,-5553,34.1351169,-118.1457449,0.50,0.00,1.42,18,1,3,0,1,1
3536766,-5407,-882,-4075,-4381,120,-4075,4382.6,178.43,190.65,1376,-3172,-2944,6535,2983,-4672,34.1351164,-118.1457453,0.73,0.00,1.42,18,1,3,0,1,1
3536776,-5407,-882,-4075,-4381,120,-4075,4382.6,178.43,190.65,1414,-3321,-2988,6198,3402,-3630,34.1351164,-118.1457453,0.73,0.00,1.42,18,1,3,0,1,1
3536786,-5407,-882,-4075,-4381,120,-4075,4382.6,178.43,190.65,1313,-3344,-3044,6214,3670,-2642,34.1351164,-118.1457453,0.73,0.00,1.42,18,1,3,0,1,1
3536796,-5407,-882,-4075,-4381,120,-4075,4382.6,178.43,190.65,912,-3265,-3224,6353,4076,-1469,34.1351164,-118.1457453,0.73,0.00,1.42,18,1,3,0,1,1
3536806,-5407,-882,-4075,-4381,120,-4075,4382.6,178.43,190.65,572,-3298,-3604,6938,4652,-948,34.1351164,-118.1457453,0.73,0.00,1.42,18,1,3,0,1,1
3536816,-5407,-882,-4075,-4381,120,-4075,4382.6,178.43,190.65,319,-3548,-4151,8544,5677,-640,34.1351164,-118.1457453,0.73,0.00,1.42,18,1,3,0,1,1
3536826,-5407,-882,-4075,-4381,120,-4075,4382.6,178.43,190.65,246,-3871,-4559,10823,6352,-483,34.1351164,-118.1457453,0.73,0.00,1.42,18,1,3,0,1,1
3536836,-5407,-882,-4075,-4381,120,-4075,4382.6,178.43,190.65,179,-4034,-4635,12739,5963,-251,34.1351164,-118.1457453,0.73,0.00,1.42,18,1,3,0,1,1
3536846,-5407,-882,-4075,-4381,120,-4075,4382.6,178.43,190.65,114,-3993,-4476,12145,5526,-23,34.1351164,-118.1457453,0.73,0.00,1.42,18,1,3,0,1,1
3536856,-5407,-882,-4075,-4381,120,-4075,4382.6,178.43,190.65,52,-3947,-4245,10989,5075,197,34.1351164,-118.1457453,0.73,0.00,1.42,18,1,3,0,1,1
3536866,-5557,-592,-3605,-4531,410,-3605,4549.5,174.83,187.05,-87,-3983,-4027,9927,4563,402,34.1351156,-118.1457456,0.72,0.00,1.42,18,1,3,0,1,1
3536876,-5557,-592,-3605,-4531,410,-3605,4549.5,174.83,187.05,-352,-4254,-3885,8025,3990,735,34.1351156,-118.1457456,0.72,0.00,1.42,18,1,3,0,1,1
3536886,-5557,-592,-3605,-4531,410,-3605,4549.5,174.83,187.05,-462,-4500,-3937,6552,3745,940,34.1351156,-118.1457456,0.72,0.00,1.42,18,1,3,0,1,1
3536896,-5557,-592,-3605,-4531,410,-3605,4549.5,174.83,187.05,-545,-4743,-4073,4954,3387,1255,34.1351156,-118.1457456,0.72,0.00,1.42,18,1,3,0,1,1
3536906,-5557,-592,-3605,-4531,410,-3605,4549.5,174.83,187.05,-588,-4935,-4268,3112,2543,1972,34.1351156,-118.1457456,0.72,0.00,1.42,18,1,3,0,1,1
3536916,-5557,-592,-3605,-4531,410,-3605,4549.5,174.83,187.05,-517,-5105,-4674,4,1184,2243,34.1351156,-118.1457456,0.72,0.00,1.42,18,1,3,0,1,1
3536926,-5557,-592,-3605,-4531,410,-3605,4549.5,174.83,187.05,-444,-5259,-4977,-2036,-308,2145,34.1351156,-118.1457456,0.72,0.00,1.42,18,1,3,0,1,1
3536936,-5557,-592,-3605,-4531,410,-3605,4549.5,174.83,187.05,-407,-5530,-5246,-3701,-1763,1750,34.1351156,-118.1457456,0.72,0.00,1.42,18,1,3,0,1,1
3536946,-5557,-592,-3605,-4531,410,-3605,4549.5,174.83,187.05,-409,-5975,-5495,-4615,-2906,1088,34.1351156,-118.1457456,0.72,0.00,1.42,18,1,3,0,1,1
3536956,-5557,-592,-3605,-4531,410,-3605,4549.5,174.83,187.05,-296,-7031,-5915,-3778,-3756,-177,34.1351156,-118.1457456,0.72,0.00,1.42,18,1,3,0,1,1
3536966,-5562,-785,-3577,-4536,217,-3577,4541.2,177.26,189.48,-140,-7808,-6035,-2103,-3834,-685,34.1351153,-118.1457459,0.48,0.00,1.42,18,1,3,0,1,1
3536976,-5562,-785,-3577,-4536,217,-3577,4541.2,177.26,189.48,-36,-8369,-5844,-757,-3899,-650,34.1351153,-118.1457459,0.48,0.00,1.42,18,1,3,0,1,1
3536986,-5562,-785,-3577,-4536,217,-3577,4541.2,177.26,189.48,1,-8617,-5537,-617,-3815,389,34.1351153,-118.1457459,0.48,0.00,1.42,18,1,3,0,1,1
3536996,-5562,-785,-3577,-4536,217,-3577,4541.2,177.26,189.48,-8,-8735,-5545,-2441,-2678,1221,34.1351153,-118.1457459,0.48,0.00,1.42,18,1,3,0,1,1
3537006,-5562,-785,-3577,-4536,217,-3577,4541.2,177.26,189.48,-38,-8628,-6006,-4015,-1318,2296,34.1351153,-118.1457459,0.48,0.00,1.42,18,1,3,0,1,1
3537016,-5562,-785,-3577,-4536,217,-3577,4541.2,177.26,189.48,36,-8282,-6856,-5375,292,3372,34.1351153,-118.1457459,0.48,0.00,1.42,18,1,3,0,1,1
3537026,-5562,-785,-3577,-4536,217,-3577,4541.2,177.26,189.48,327,-7774,-7996,-6109,1996,4284,34.1351153,-118.1457459,0.48,0.00,1.42,18,1,3,0,1,1
3537036,-5562,-785,-3577,-4536,217,-3577,4541.2,177.26,189.48,924,-7037,-9493,-5529,2287,4310,34.1351153,-118.1457459,0.48,0.00,1.42,18,1,3,0,1,1
3537046,-5562,-785,-3577,-4536,217,-3577,4541.2,177.26,189.48,1254,-6623,-10124,-4431,2181,4052,34.1351153,-118.1457459,0.48,0.00,1.42,18,1,3,0,1,1
3537056,-5562,-785,-3577,-4536,217,-3577,4541.2,177.26,189.48,1550,-6138,-10406,-3051,1740,3529,34.1351153,-118.1457459,0.48,0.00,1.42,18,1,3,0,1,1
3537066,-5520,-960,-3740,-4494,42,-3740,4494.2,179.46,191.68,1729,-5645,-10019,-1032,365,2462,34.1351150,-118.1457462,0.40,0.00,1.42,18,1,3,0,1,1
3537076,-5520,-960,-3740,-4494,42,-3740,4494.2,179.46,191.68,1567,-5035,-9519,10,-535,1805,34.1351150,-118.1457462,0.40,0.00,1.42,18,1,3,0,1,1
3537086,-5520,-960,-3740,-4494,42,-3740,4494.2,179.46,191.68,1322,-4686,-8796,1031,-924,1200,34.1351150,-118.1457462,0.40,0.00,1.42,18,1,3,0,1,1
3537096,-5520,-960,-3740,-4494,42,-3740,4494.2,179.46,191.68,1144,-4409,-7963,2099,-927,695,34.1351150,-118.1457462,0.40,0.00,1.42,18,1,3,0,1,1
3537106,-5520,-960,-3740,-4494,42,-3740,4494.2,179.46,191.68,1031,-4111,-6656,2885,-1084,248,34.1351150,-118.1457462,0.40,0.00,1.42,18,1,3,0,1,1
3537116,-5520,-960,-3740,-4494,42,-3740,4494.2,179.46,191.68,956,-3987,-5830,2662,-1269,-53,34.1351150,-118.1457462,0.40,0.00,1.42,18,1,3,0,1,1
3537126,-5520,-960,-3740,-4494,42,-3740,4494.2,179.46,191.68,794,-3959,-5018,2138,-1569,-377,34.1351150,-118.1457462,0.40,0.00,1.42,18,1,3,0,1,1
3537136,-5520,-960,-3740,-4494,42,-3740,4494.2,179.46,191.68,568,-4092,-4217,1249,-2160,-586,34.1351150,-118.1457462,0.40,0.00,1.42,18,1,3,0,1,1
3537146,-5520,-960,-3740,-4494,42,-3740,4494.2,179.46,191.68,232,-4505,-3163,-1000,-3241,-519,34.1351150,-118.1457462,0.40,0.00,1.42,18,1,3,0,1,1
3537156,-5520,-960,-3740,-4494,42,-3740,4494.2,179.46,191.68,3,-4762,-2639,-2771,-3937,-189,34.1351150,-118.1457462,0.40,0.00,1.42,18,1,3,0,1,1
3537166,-5567,-977,-3717,-4541,25,-3717,4541.1,179.68,191.90,-226,-4984,-2314,-4499,-4399,364,34.1351142,-118.1457463,1.36,0.00,1.42,18,1,3,0,1,1
3537176,-5567,-977,-3717,-4541,25,-3717,4541.1,179.68,191.90,-426,-5162,-2201,-5949,-4321,1022,34.1351142,-118.1457463,1.36,0.00,1.42,18,1,3,0,1,1
3537186,-5567,-977,-3717,-4541,25,-3717,4541.1,179.68,191.90,-707,-5174,-2396,-6918,-3076,2194,34.1351142,-118.1457463,1.36,0.00,1.42,18,1,3,0,1,1
3537196,-5567,-977,-3717,-4541,25,-3717,4541.1,179.68,191.90,-891,-5041,-2803,-6582,-1746,2950,34.1351142,-118.1457463,1.36,0.00,1.42,18,1,3,0,1,1
3537206,-5567,-977,-3717,-4541,25,-3717,4541.1,179.68,191.90,-952,-4812,-3384,-5671,-247,3366,34.1351142,-118.1457463,1.36,0.00,1.42,18,1,3,0,1,1
3537216,-5567,-977,-3717,-4541,25,-3717,4541.1,179.68,191.90,-848,-4526,-4036,-4435,1087,3362,34.1351142,-118.1457463,1.36,0.00,1.42,18,1,3,0,1,1
3537226,-5567,-977,-3717,-4541,25,-3717,4541.1,179.68,191.90,-689,-4287,-4917,-2117,2172,2917,34.1351142,-118.1457463,1.36,0.00,1.42,18,1,3,0,1,1
3537236,-5567,-977,-3717,-4541,25,-3717,4541.1,179.68,191.90,-650,-4301,-5360,-649,2239,2608,34.1351142,-118.1457463,1.36,0.00,1.42,18,1,3,0,1,1
3537246,-5567,-977,-3717,-4541,25,-3717,4541.1,179.68,191.90,-583,-4310,-5651,584,1853,2422,34.1351142,-118.1457463,1.36,0.00,1.42,18,1,3,0,1,1
3537256,-5567,-977,-3717,-4541,25,-3717,4541.1,179.68,191.90,-456,-4232,-5807,1460,1086,2293,34.1351142,-118.1457463,1.36,0.00,1.42,18,1,3,0,1,1
3537266,-5440,-1252,-3825,-4414,-250,-3825,4421.1,183.24,195.46,-241,-3990,-5802,1922,-932,2038,34.1351134,-118.1457464,1.77,185.64,1.42,18,1,3,0,1,1
3537276,-5440,-1252,-3825,-4414,-250,-3825,4421.1,183.24,195.46,-189,-3803,-5589,2015,-2493,1723,34.1351134,-118.1457464,1.77,185.64,1.42,18,1,3,0,1,1
3537286,-5440,-1252,-3825,-4414,-250,-3825,4421.1,183.24,195.46,-217,-3676,-5190,2182,-3857,1351,34.1351134,-118.1457464,1.77,185.64,1.42,18,1,3,0,1,1
3537296,-5440,-1252,-3825,-4414,-250,-3825,4421.1,183.24,195.46,-323,-3644,-4682,2313,-4804,955,34.1351134,-118.1457464,1.77,185.64,1.42,18,1,3,0,1,1
3537306,-5440,-1252,-3825,-4414,-250,-3825,4421.1,183.24,195.46,-522,-3669,-4009,2434,-5061,355,34.1351134,-118.1457464,1.77,185.64,1.42,18,1,3,0,1,1
3537316,-5440,-1252,-3825,-4414,-250,-3825,4421.1,183.24,195.46,-563,-3653,-3727,2733,-4552,-26,34.1351134,-118.1457464,1.77,185.64,1.42,18,1,3,0,1,1
3537326,-5440,-1252,-3825,-4414,-250,-3825,4421.1,183.24,195.46,-530,-3631,-3590,3257,-3754,-481,34.1351134,-118.1457464,1.77,185.64,1.42,18,1,3,0,1,1
3537336,-5440,-1252,-3825,-4414,-250,-3825,4421.1,183.24,195.46,-450,-3663,-3570,3861,-2864,-1097,34.1351134,-118.1457464,1.77,185.64,1.42,18,1,3,0,1,1
3537346,-5440,-1252,-3825,-4414,-250,-3825,4421.1,183.24,195.46,-310,-3849,-3612,4762,-1720,-2355,34.1351134,-118.1457464,1.77,185.64,1.42,18,1,3,0,1,1
3537356,-5440,-1252,-3825,-4414,-250,-3825,4421.1,183.24,195.46,-249,-4076,-3639,5324,-1134,-3173,34.1351134,-118.1457464,1.77,185.64,1.42,18,1,3,0,1,1
3537366,-5582,-1190,-3625,-4556,-188,-3625,4559.9,182.36,194.58,-197,-4376,-3646,5624,-726,-3877,34.1351132,-118.1457473,1.57,197.35,1.42,18,1,3,0,1,1
3537376,-5582,-1190,-3625,-4556,-188,-3625,4559.9,182.36,194.58,-139,-4696,-3621,5612,-537,-4468,34.1351132,-118.1457473,1.57,197.35,1.42,18,1,3,0,1,1
3537386,-5582,-1190,-3625,-4556,-188,-3625,4559.9,182.36,194.58,-4,-5111,-3564,5005,-608,-5060,34.1351132,-118.1457473,1.57,197.35,1.42,18,1,3,0,1,1
3537396,-5582,-1190,-3625,-4556,-188,-3625,4559.9,182.36,194.58,118,-5298,-3539,4267,-794,-5102,34.1351132,-118.1457473,1.57,197.35,1.42,18,1,3,0,1,1
3537406,-5582,-1190,-3625,-4556,-188,-3625,4559.9,182.36,194.58,260,-5469,-3536,3327,-974,-4899,34.1351132,-118.1457473,1.57,197.35,1.42,18,1,3,0,1,1
3537416,-5582,-1190,-3625,-4556,-188,-3625,4559.9,182.36,194.58,411,-5655,-3576,1994,-1294,-4556,34.1351132,-118.1457473,1.57,197.35,1.42,18,1,3,0,1,1
3537426,-5582,-1190,-3625,-4556,-188,-3625,4559.9,182.36,194.58,598,-5808,-3863,-1031,-1810,-3617,34.1351132,-118.1457473,1.57,197.35,1.42,18,1,3,0,1,1
3537436,-5582,-1190,-3625,-4556,-188,-3625,4559.9,182.36,194.58,655,-5808,-4333,-3284,-1905,-2839,34.1351132,-118.1457473,1.57,197.35,1.42,18,1,3,0,1,1
3537446,-5582,-1190,-3625,-4556,-188,-3625,4559.9,182.36,194.58,661,-5789,-4972,-5310,-1952,-2163,34.1351132,-118.1457473,1.57,197.35,1.42,18,1,3,0,1,1
3537456,-5582,-1190,-3625,-4556,-188,-3625,4559.9,182.36,194.58,627,-5805,-5652,-6959,-2121,-1746,34.1351132,-118.1457473,1.57,197.35,1.42,18,1,3,0,1,1
3537466,-5632,-987,-3810,-4606,15,-3810,4606.0,179.81,192.03,413,-5988,-6524,-8173,-2883,-2265,34.1351132,-118.1457477,0.70,0.00,1.42,18,1,3,0,1,1
3537476,-5632,-987,-3810,-4606,15,-3810,4606.0,179.81,192.03,286,-6222,-6870,-7833,-3187,-3518,34.1351132,-118.1457477,0.70,0.00,1.42,18,1,3,0,1,1
3537486,-5632,-987,-3810,-4606,15,-3810,4606.0,179.81,192.03,331,-6539,-7093,-6611,-2886,-4964,34.1351132,-118.1457477,0.70,0.00,1.42,18,1,3,0,1,1
3537496,-5632,-987,-3810,-4606,15,-3810,4606.0,179.81,192.03,607,-6964,-7269,-4709,-2363,-6270,34.1351132,-118.1457477,0.70,0.00,1.42,18,1,3,0,1,1
3537506,-5632,-987,-3810,-4606,15,-3810,4606.0,179.81,192.03,1262,-7689,-7300,-1809,-2175,-7241,34.1351132,-118.1457477,0.70,0.00,1.42,18,1,3,0,1,1
3537516,-5632,-987,-3810,-4606,15,-3810,4606.0,179.81,192.03,1654,-8050,-7252,-1259,-2101,-6646,34.1351132,-118.1457477,0.70,0.00,1.42,18,1,3,0,1,1
3537526,-5632,-987,-3810,-4606,15,-3810,4606.0,179.81,192.03,1837,-8240,-7343,-2039,-1826,-4941,34.1351132,-118.1457477,0.70,0.00,1.42,18,1,3,0,1,1
3537536,-5632,-987,-3810,-4606,15,-3810,4606.0,179.81,192.03,1757,-8199,-7638,-3501,-1541,-2544,34.1351132,-118.1457477,0.70,0.00,1.42,18,1,3,0,1,1
3537546,-5632,-987,-3810,-4606,15,-3810,4606.0,179.81,192.03,1268,-7511,-8352,-5227,-1345,1046,34.1351132,-118.1457477,0.70,0.00,1.42,18,1,3,0,1,1
3537556,-5632,-987,-3810,-4606,15,-3810,4606.0,179.81,192.03,789,-6825,-8728,-5089,-1426,2616,34.1351132,-118.1457477,0.70,0.00,1.42,18,1,3,0,1,1
3537566,-5417,-940,-3842,-4391,62,-3842,4391.4,179.19,191.41,207,-6188,-8823,-3909,-1737,3359,34.1351131,-118.1457477,0.25,0.00,1.47,17,1,3,0,1,1
3537576,-5417,-940,-3842,-4391,62,-3842,4391.4,179.19,191.41,-408,-5692,-8650,-2062,-1952,3647,34.1351131,-118.1457477,0.25,0.00,1.47,17,1,3,0,1,1
3537586,-5417,-940,-3842,-4391,62,-3842,4391.4,179.19,191.41,-1032,-5168,-8092,703,-1687,3778,34.1351131,-118.1457477,0.25,0.00,1.47,17,1,3,0,1,1
3537596,-5417,-940,-3842,-4391,62,-3842,4391.4,179.19,191.41,-1200,-4918,-7633,1585,-1399,3817,34.1351131,-118.1457477,0.25,0.00,1.47,17,1,3,0,1,1
3537606,-5417,-940,-3842,-4391,62,-3842,4391.4,179.19,191.41,-1364,-4727,-7216,1356,-1172,3970,34.1351131,-118.1457477,0.25,0.00,1.47,17,1,3,0,1,1
3537616,-5417,-940,-3842,-4391,62,-3842,4391.4,179.19,191.41,-1598,-4598,-6948,421,-795,4209,34.1351131,-118.1457477,0.25,0.00,1.47,17,1,3,0,1,1
3537626,-5417,-940,-3842,-4391,62,-3842,4391.4,179.19,191.41,-1932,-4414,-6878,-947,142,4562,34.1351131,-118.1457477,0.25,0.00,1.47,17,1,3,0,1,1
3537636,-5417,-940,-3842,-4391,62,-3842,4391.4,179.19,191.41,-2018,-4247,-7002,-1495,956,4669,34.1351131,-118.1457477,0.25,0.00,1.47,17,1,3,0,1,1
3537646,-5417,-940,-3842,-4391,62,-3842,4391.4,179.19,191.41,-1947,-4065,-7210,-1698,1724,4466,34.1351131,-118.1457477,0.25,0.00,1.47,17,1,3,0,1,1
3537656,-5417,-940,-3842,-4391,62,-3842,4391.4,179.19,191.41,-1734,-3871,-7413,-1611,2119,3932,34.1351131,-118.1457477,0.25,0.00,1.47,17,1,3,0,1,1
3537666,-5460,-1165,-3870,-4434,-163,-3870,4437.0,182.11,194.32,-1333,-3486,-7413,-896,1791,2394,34.1351127,-118.1457478,0.25,0.00,1.42,18,1,3,0,1,1
3537676,-5460,-1165,-3870,-4434,-163,-3870,4437.0,182.11,194.32,-1051,-3208,-7122,29,1199,849,34.1351127,-118.1457478,0.25,0.00,1.42,18,1,3,0,1,1
3537686,-5460,-1165,-3870,-4434,-163,-3870,4437.0,182.11,194.32,-728,-3068,-6640,1025,490,-1015,34.1351127,-118.1457478,0.25,0.00,1.42,18,1,3,0,1,1
3537696,-5460,-1165,-3870,-4434,-163,-3870,4437.0,182.11,194.32,-420,-3197,-6054,1795,-396,-3791,34.1351127,-118.1457478,0.25,0.00,1.42,18,1,3,0,1,1
3537706,-5460,-1165,-3870,-4434,-163,-3870,4437.0,182.11,194.32,6,-3740,-5122,2747,-573,-5043,34.1351127,-118.1457478,0.25,0.00,1.42,18,1,3,0,1,1
3537716,-5460,-1165,-3870,-4434,-163,-3870,4437.0,182.11,194.32,401,-4056,-4488,3287,-551,-5580,34.1351127,-118.1457478,0.25,0.00,1.42,18,1,3,0,1,1
3537726,-5460,-1165,-3870,-4434,-163,-3870,4437.0,182.11,194.32,826,-4258,-3902,3573,-316,-5495,34.1351127,-118.1457478,0.25,0.00,1.42,18,1,3,0,1,1
3537736,-5460,-1165,-3870,-4434,-163,-3870,4437.0,182.11,194.32,1171,-4373,-3424,3528,473,-4722,34.1351127,-118.1457478,0.25,0.00,1.42,18,1,3,0,1,1
3537746,-5460,-1165,-3870,-4434,-163,-3870,4437.0,182.11,194.32,1461,-4419,-2993,3140,1161,-3987,34.1351127,-118.1457478,0.25,0.00,1.42,18,1,3,0,1,1
3537756,-5460,-1165,-3870,-4434,-163,-3870,4437.0,182.11,194.32,1485,-4384,-2854,2927,1887,-3125,34.1351127,-118.1457478,0.25,0.00,1.42,18,1,3,0,1,1
3537766,-5507,-887,-3797,-4481,115,-3797,4482.5,178.53,190.75,1389,-4306,-2777,2894,2546,-2249,34.1351122,-118.1457478,0.49,0.00,1.42,18,1,3,0,1,1
3537776,-5507,-887,-3797,-4481,115,-3797,4482.5,178.53,190.75,1147,-4151,-2769,3134,3529,-1133,34.1351122,-118.1457478,0.49,0.00,1.42,18,1,3,0,1,1
3537786,-5507,-887,-3797,-4481,115,-3797,4482.5,178.53,190.75,973,-4027,-2805,3344,4037,-566,34.1351122,-118.1457478,0.49,0.00,1.42,18,1,3,0,1,1
3537796,-5507,-887,-3797,-4481,115,-3797,4482.5,178.53,190.75,778,-3892,-2823,3531,4307,-76,34.1351122,-118.1457478,0.49,0.00,1.42,18,1,3,0,1,1
3537806,-5507,-887,-3797,-4481,115,-3797,4482.5,178.53,190.75,565,-3780,-2825,3682,4405,348,34.1351122,-118.1457478,0.49,0.00,1.42,18,1,3,0,1,1
3537816,-5507,-887,-3797,-4481,115,-3797,4482.5,178.53,190.75,370,-3695,-2819,3921,4349,768,34.1351122,-118.1457478,0.49,0.00,1.42,18,1,3,0,1,1
3537826,-5507,-887,-3797,-4481,115,-3797,4482.5,178.53,190.75,115,-3650,-2817,4049,4149,1038,34.1351122,-118.1457478,0.49,0.00,1.42,18,1,3,0,1,1
3537836,-5507,-887,-3797,-4481,115,-3797,4482.5,178.53,190.75,-28,-3641,-2832,4092,3864,1300,34.1351122,-118.1457478,0.49,0.00,1.42,18,1,3,0,1,1
3537846,-5507,-887,-3797,-4481,115,-3797,4482.5,178.53,190.75,-152,-3679,-2860,4008,3560,1506,34.1351122,-118.1457478,0.49,0.00,1.42,18,1,3,0,1,1
3537856,-5507,-887,-3797,-4481,115,-3797,4482.5,178.53,190.75,-317,-3694,-2881,3780,3124,1790,34.1351122,-118.1457478,0.49,0.00,1.42,18,1,3,0,1,1
3537866,-5572,-950,-3410,-4546,52,-3410,4546.3,179.34,191.56,-420,-3686,-2878,3653,2850,1853,34.1351114,-118.1457478,0.98,169.63,1.42,18,1,3,0,1,1
3537876,-5572,-950,-3410,-4546,52,-3410,4546.3,179.34,191.56,-520,-3736,-2883,3477,2702,1841,34.1351114,-118.1457478,0.98,169.63,1.42,18,1,3,0,1,1
3537886,-5572,-950,-3410,-4546,52,-3410,4546.3,179.34,191.56,-607,-3828,-2947,3137,2688,1932,34.1351114,-118.1457478,0.98,169.63,1.42,18,1,3,0,1,1
3537896,-5572,-950,-3410,-4546,52,-3410,4546.3,179.34,191.56,-739,-3913,-3191,2277,2807,2090,34.1351114,-118.1457478,0.98,169.63,1.42,18,1,3,0,1,1
3537906,-5572,-950,-3410,-4546,52,-3410,4546.3,179.34,191.56,-806,-3982,-3437,1644,3015,2049,34.1351114,-118.1457478,0.98,169.63,1.42,18,1,3,0,1,1
3537916,-5572,-950,-3410,-4546,52,-3410,4546.3,179.34,191.56,-789,-4087,-3779,863,3189,1934,34.1351114,-118.1457478,0.98,169.63,1.42,18,1,3,0,1,1
3537926,-5572,-950,-3410,-4546,52,-3410,4546.3,179.34,191.56,-672,-4192,-4235,-103,3211,1617,34.1351114,-118.1457478,0.98,169.63,1.42,18,1,3,0,1,1
3537936,-5572,-950,-3410,-4546,52,-3410,4546.3,179.34,191.56,-474,-4545,-5078,-1416,3014,737,34.1351114,-118.1457478,0.98,169.63,1.42,18,1,3,0,1,1
3537946,-5572,-950,-3410,-4546,52,-3410,4546.3,179.34,191.56,-355,-5085,-5731,-1957,2821,19,34.1351114,-118.1457478,0.98,169.63,1.42,18,1,3,0,1,1
3537956,-5572,-950,-3410,-4546,52,-3410,4546.3,179.34,191.56,-219,-5870,-6419,-2286,2577,-690,34.1351114,-118.1457478,0.98,169.63,1.42,18,1,3,0,1,1
3537966,-5620,-977,-3415,-4594,25,-3415,4594.1,179.69,191.90,-80,-6765,-6989,-2184,2089,-1355,34.1351101,-118.1457479,1.42,174.98,1.42,18,1,3,0,1,1
3537976,-5620,-977,-3415,-4594,25,-3415,4594.1,179.69,191.90,143,-7914,-7302,-1317,979,-1904,34.1351101,-118.1457479,1.42,174.98,1.42,18,1,3,0,1,1
3537986,-5620,-977,-3415,-4594,25,-3415,4594.1,179.69,191.90,259,-8390,-7236,-1292,409,-1563,34.1351101,-118.1457479,1.42,174.98,1.42,18,1,3,0,1,1
3537996,-5620,-977,-3415,-4594,25,-3415,4594.1,179.69,191.90,337,-8608,-7163,-2047,-106,-717,34.1351101,-118.1457479,1.42,174.98,1.42,18,1,3,0,1,1
3538006,-5620,-977,-3415,-4594,25,-3415,4594.1,179.69,191.90,360,-8619,-7203,-3277,-666,283,34.1351101,-118.1457479,1.42,174.98,1.42,18,1,3,0,1,1
3538016,-5620,-977,-3415,-4594,25,-3415,4594.1,179.69,191.90,293,-8277,-7553,-5322,-922,1915,34.1351101,-118.1457479,1.42,174.98,1.42,18,1,3,0,1,1
3538026,-5620,-977,-3415,-4594,25,-3415,4594.1,179.69,191.90,344,-7960,-8089,-6208,-375,2880,34.1351101,-118.1457479,1.42,174.98,1.42,18,1,3,0,1,1
3538036,-5620,-977,-3415,-4594,25,-3415,4594.1,179.69,191.90,570,-7646,-8861,-6120,441,3311,34.1351101,-118.1457479,1.42,174.98,1.42,18,1,3,0,1,1
3538046,-5620,-977,-3415,-4594,25,-3415,4594.1,179.69,191.90,932,-7318,-9606,-5090,1103,3189,34.1351101,-118.1457479,1.42,174.98,1.42,18,1,3,0,1,1
3538056,-5620,-977,-3415,-4594,25,-3415,4594.1,179.69,191.90,1391,-6974,-10259,-2709,1514,2569,34.1351101,-118.1457479,1.42,174.98,1.42,18,1,3,0,1,1
3538066,-5637,-1017,-3615,-4611,-15,-3615,4611.0,180.19,192.40,1520,-6814,-10365,-771,1534,2179,34.1351091,-118.1457481,1.80,180.94,1.42,18,1,3,0,1,1
3538076,-5637,-1017,-3615,-4611,-15,-3615,4611.0,180.19,192.40,1576,-6524,-10151,1340,1441,2017,34.1351091,-118.1457481,1.80,180.94,1.42,18,1,3,0,1,1
3538086,-5637,-1017,-3615,-4611,-15,-3615,4611.0,180.19,192.40,1573,-6096,-9614,3202,1266,2095,34.1351091,-118.1457481,1.80,180.94,1.42,18,1,3,0,1,1
3538096,-5637,-1017,-3615,-4611,-15,-3615,4611.0,180.19,192.40,1482,-5239,-8365,4337,693,2161,34.1351091,-118.1457481,1.80,180.94,1.42,18,1,3,0,1,1
3538106,-5637,-1017,-3615,-4611,-15,-3615,4611.0,180.19,192.40,1343,-4642,-7376,4017,99,1899,34.1351091,-118.1457481,1.80,180.94,1.42,18,1,3,0,1,1
3538116,-5637,-1017,-3615,-4611,-15,-3615,4611.0,180.19,192.40,1108,-4226,-6396,3450,-486,1331,34.1351091,-118.1457481,1.80,180.94,1.42,18,1,3,0,1,1
3538126,-5637,-1017,-3615,-4611,-15,-3615,4611.0,180.19,192.40,822,-4062,-5467,2998,-1055,559,34.1351091,-118.1457481,1.80,180.94,1.42,18,1,3,0,1,1
3538136,-5637,-1017,-3615,-4611,-15,-3615,4611.0,180.19,192.40,385,-4225,-4132,2325,-1967,-625,34.1351091,-118.1457481,1.80,180.94,1.42,18,1,3,0,1,1
3538146,-5637,-1017,-3615,-4611,-15,-3615,4611.0,180.19,192.40,115,-4540,-3343,1566,-2533,-1272,34.1351091,-118.1457481,1.80,180.94,1.42,18,1,3,0,1,1
3538156,-5637,-1017,-3615,-4611,-15,-3615,4611.0,180.19,192.40,-113,-4910,-2701,326,-3162,-1553,34.1351091,-118.1457481,1.80,180.94,1.42,18,1,3,0,1,1
3538166,-5662,-1137,-3447,-4636,-135,-3447,4638.0,181.67,193.88,-323,-5269,-2214,-1282,-3854,-1284,34.1351082,-118.1457481,1.90,180.79,1.42,18,1,3,0,1,1
3538176,-5662,-1137,-3447,-4636,-135,-3447,4638.0,181.67,193.88,-694,-5675,-1851,-3339,-4169,-91,34.1351082,-118.1457481,1.90,180.79,1.42,18,1,3,0,1,1
3538186,-5662,-1137,-3447,-4636,-135,-3447,4638.0,181.67,193.88,-956,-5799,-1892,-4049,-3481,917,34.1351082,-118.1457481,1.90,180.79,1.42,18,1,3,0,1,1
3538196,-5662,-1137,-3447,-4636,-135,-3447,4638.0,181.67,193.88,-1115,-5763,-2153,-4175,-2153,1928,34.1351082,-118.1457481,1.90,180.79,1.42,18,1,3,0,1,1
3538206,-5662,-1137,-3447,-4636,-135,-3447,4638.0,181.67,193.88,-1095,-5524,-2603,-3879,-550,2895,34.1351082,-118.1457481,1.90,180.79,1.42,18,1,3,0,1,1
3538216,-5662,-1137,-3447,-4636,-135,-3447,4638.0,181.67,193.88,-853,-4843,-3470,-2855,1466,3743,34.1351082,-118.1457481,1.90,180.79,1.42,18,1,3,0,1,1
3538226,-5662,-1137,-3447,-4636,-135,-3447,4638.0,181.67,193.88,-695,-4405,-4041,-1974,2326,3740,34.1351082,-118.1457481,1.90,180.79,1.42,18,1,3,0,1,1
3538236,-5662,-1137,-3447,-4636,-135,-3447,4638.0,181.67,193.88,-571,-4167,-4524,-1089,2796,3434,34.1351082,-118.1457481,1.90,180.79,1.42,18,1,3,0,1,1
3538246,-5662,-1137,-3447,-4636,-135,-3447,4638.0,181.67,193.88,-444,-4107,-4931,-223,2999,3097,34.1351082,-118.1457481,1.90,180.79,1.42,18,1,3,0,1,1
3538256,-5662,-1137,-3447,-4636,-135,-3447,4638.0,181.67,193.88,-139,-4045,-5455,798,2618,2643,34.1351082,-118.1457481,1.90,180.79,1.42,18,1,3,0,1,1
3538266,-5615,-1215,-3467,-4589,-213,-3467,4593.9,182.66,194.87,81,-4005,-5662,1321,1753,2269,34.1351086,-118.1457481,0.35,175.66,1.42,18,1,3,0,1,1
3538276,-5615,-1215,-3467,-4589,-213,-3467,4593.9,182.66,194.87,242,-4012,-5694,1655,371,1956,34.1351086,-118.1457481,0.35,175.66,1.42,18,1,3,0,1,1
3538286,-5615,-1215,-3467,-4589,-213,-3467,4593.9,182.66,194.87,273,-4012,-5522,1731,-1355,1783,34.1351086,-118.1457481,0.35,175.66,1.42,18,1,3,0,1,1
3538296,-5615,-1215,-3467,-4589,-213,-3467,4593.9,182.66,194.87,79,-3932,-4860,1655,-3552,1427,34.1351086,-118.1457481,0.35,175.66,1.42,18,1,3,0,1,1
3538306,-5615,-1215,-3467,-4589,-213,-3467,4593.9,182.66,194.87,-89,-3914,-4320,1618,-4560,1192,34.1351086,-118.1457481,0.35,175.66,1.42,18,1,3,0,1,1
3538316,-5615,-1215,-3467,-4589,-213,-3467,4593.9,182.66,194.87,-232,-3947,-3837,1478,-5164,1020,34.1351086,-118.1457481,0.35,175.66,1.42,18,1,3,0,1,1
3538326,-5615,-1215,-3467,-4589,-213,-3467,4593.9,182.66,194.87,-335,-3946,-3478,1144,-5044,502,34.1351086,-118.1457481,0.35,175.66,1.42,18,1,3,0,1,1
3538336,-5615,-1215,-3467,-4589,-213,-3467,4593.9,182.66,194.87,-419,-3905,-3215,1109,-4417,-121,34.1351086,-118.1457481,0.35,175.66,1.42,18,1,3,0,1,1
3538346,-5615,-1215,-3467,-4589,-213,-3467,4593.9,182.66,194.87,-455,-3950,-3205,1227,-3714,-926,34.1351086,-118.1457481,0.35,175.66,1.42,18,1,3,0,1,1
3538356,-5615,-1215,-3467,-4589,-213,-3467,4593.9,182.66,194.87,-448,-4082,-3273,1570,-2952,-1895,34.1351086,-118.1457481,0.35,175.66,1.42,18,1,3,0,1,1
3538366,-5620,-1200,-3452,-4594,-198,-3452,4598.3,182.47,194.68,-270,-4456,-3436,2639,-1733,-3391,34.1351089,-118.1457479,0.53,0.00,1.42,18,1,3,0,1,1
3538376,-5620,-1200,-3452,-4594,-198,-3452,4598.3,182.47,194.68,-37,-4806,-3546,3219,-1293,-4190,34.1351089,-118.1457479,0.53,0.00,1.42,18,1,3,0,1,1
3538386,-5620,-1200,-3452,-4594,-198,-3452,4598.3,182.47,194.68,200,-5154,-3611,3500,-1160,-4735,34.1351089,-118.1457479,0.53,0.00,1.42,18,1,3,0,1,1
3538396,-5620,-1200,-3452,-4594,-198,-3452,4598.3,182.47,194.68,400,-5480,-3638,3664,-1156,-5014,34.1351089,-118.1457479,0.53,0.00,1.42,18,1,3,0,1,1
3538406,-5620,-1200,-3452,-4594,-198,-3452,4598.3,182.47,194.68,591,-5818,-3642,3409,-1298,-4985,34.1351089,-118.1457479,0.53,0.00,1.42,18,1,3,0,1,1
3538416,-5620,-1200,-3452,-4594,-198,-3452,4598.3,182.47,194.68,814,-6340,-3702,2886,-1415,-4505,34.1351089,-118.1457479,0.53,0.00,1.42,18,1,3,0,1,1
3538426,-5620,-1200,-3452,-4594,-198,-3452,4598.3,182.47,194.68,907,-6571,-3862,1996,-1523,-3730,34.1351089,-118.1457479,0.53,0.00,1.42,18,1,3,0,1,1
3538436,-5620,-1200,-3452,-4594,-198,-3452,4598.3,182.47,194.68,962,-6625,-4095,980,-1592,-2869,34.1351089,-118.1457479,0.53,0.00,1.42,18,1,3,0,1,1
3538446,-5620,-1200,-3452,-4594,-198,-3452,4598.3,182.47,194.68,937,-6546,-4644,-668,-1512,-1715,34.1351089,-118.1457479,0.53,0.00,1.42,18,1,3,0,1,1
3538456,-5620,-1200,-3452,-4594,-198,-3452,4598.3,182.47,194.68,736,-6366,-5208,-1588,-1233,-1260,34.1351089,-118.1457479,0.53,0.00,1.42,18,1,3,0,1,1
3538466,-5745,-1112,-3337,-4719,-110,-3337,4720.3,181.34,193.55,548,-6382,-5781,-2085,-1051,-1327,34.1351092,-118.1457477,0.70,0.00,1.42,18,1,3,0,1,1
3538476,-5745,-1112,-3337,-4719,-110,-3337,4720.3,181.34,193.55,399,-6588,-6196,-2105,-1056,-2147,34.1351092,-118.1457477,0.70,0.00,1.42,18,1,3,0,1,1
3538486,-5745,-1112,-3337,-4719,-110,-3337,4720.3,181.34,193.55,415,-7132,-6455,-1251,-725,-4407,34.1351092,-118.1457477,0.70,0.00,1.42,18,1,3,0,1,1
3538496,-5745,-1112,-3337,-4719,-110,-3337,4720.3,181.34,193.55,718,-7631,-6475,-352,-347,-5910,34.1351092,-118.1457477,0.70,0.00,1.42,18,1,3,0,1,1
3538506,-5745,-1112,-3337,-4719,-110,-3337,4720.3,181.34,193.55,1301,-8182,-6453,86,-133,-6962,34.1351092,-118.1457477,0.70,0.00,1.42,18,1,3,0,1,1
3538516,-5745,-1112,-3337,-4719,-110,-3337,4720.3,181.34,193.55,1995,-8665,-6472,-438,-36,-7161,34.1351092,-118.1457477,0.70,0.00,1.42,18,1,3,0,1,1
3538526,-5745,-1112,-3337,-4719,-110,-3337,4720.3,181.34,193.55,2796,-9196,-6958,-2304,320,-5495,34.1351092,-118.1457477,0.70,0.00,1.42,18,1,3,0,1,1
3538536,-5745,-1112,-3337,-4719,-110,-3337,4720.3,181.34,193.55,3075,-9311,-7539,-3229,506,-3237,34.1351092,-118.1457477,0.70,0.00,1.42,18,1,3,0,1,1
3538546,-5745,-1112,-3337,-4719,-110,-3337,4720.3,181.34,193.55,3080,-9081,-8016,-3657,306,-611,34.1351092,-118.1457477,0.70,0.00,1.42,18,1,3,0,1,1
3538556,-5745,-1112,-3337,-4719,-110,-3337,4720.3,181.34,193.55,2673,-8472,-8294,-3703,-192,1694,34.1351092,-118.1457477,0.70,0.00,1.42,18,1,3,0,1,1
3538566,-5820,-977,-3470,-4794,25,-3470,4794.1,179.70,191.92,1496,-7257,-8237,-2645,-745,3562,34.1351092,-118.1457475,0.51,0.00,1.42,18,1,3,0,1,1
3538576,-5820,-977,-3470,-4794,25,-3470,4794.1,179.70,191.92,700,-6554,-7828,-1086,-888,3794,34.1351092,-118.1457475,0.51,0.00,1.42,18,1,3,0,1,1
3538586,-5820,-977,-3470,-4794,25,-3470,4794.1,179.70,191.92,35,-6087,-7176,574,-1005,3665,34.1351092,-118.1457475,0.51,0.00,1.42,18,1,3,0,1,1
3538596,-5820,-977,-3470,-4794,25,-3470,4794.1,179.70,191.92,-514,-5771,-6393,1516,-1074,3499,34.1351092,-118.1457475,0.51,0.00,1.42,18,1,3,0,1,1
3538606,-5820,-977,-3470,-4794,25,-3470,4794.1,179.70,191.92,-1168,-5345,-5346,1110,-1037,3536,34.1351092,-118.1457475,0.51,0.00,1.42,18,1,3,0,1,1
3538616,-5820,-977,-3470,-4794,25,-3470,4794.1,179.70,191.92,-1524,-5167,-4881,88,-991,3834,34.1351092,-118.1457475,0.51,0.00,1.42,18,1,3,0,1,1
3538626,-5820,-977,-3470,-4794,25,-3470,4794.1,179.70,191.92,-1888,-5052,-4656,-1287,-776,4301,34.1351092,-118.1457475,0.51,0.00,1.42,18,1,3,0,1,1
3538636,-5820,-977,-3470,-4794,25,-3470,4794.1,179.70,191.92,-2192,-4871,-4645,-2605,-314,4778,34.1351092,-118.1457475,0.51,0.00,1.42,18,1,3,0,1,1
3538646,-5820,-977,-3470,-4794,25,-3470,4794.1,179.70,191.92,-2305,-4400,-4904,-3624,757,5150,34.1351092,-118.1457475,0.51,0.00,1.42,18,1,3,0,1,1
3538656,-5820,-977,-3470,-4794,25,-3470,4794.1,179.70,191.92,-2152,-3969,-5202,-3722,1499,4962,34.1351092,-118.1457475,0.51,0.00,1.42,18,1,3,0,1,1
3538666,-5807,-1185,-3572,-4781,-183,-3572,4784.5,182.19,194.41,-1887,-3494,-5516,-3621,1981,4445,34.1351100,-118.1457475,1.18,0.00,1.42,18,1,3,0,1,1
3538676,-5807,-1185,-3572,-4781,-183,-3572,4784.5,182.19,194.41,-1578,-3079,-5748,-3358,2077,3625,34.1351100,-118.1457475,1.18,0.00,1.42,18,1,3,0,1,1
3538686,-5807,-1185,-3572,-4781,-183,-3572,4784.5,182.19,194.41,-1168,-2715,-5774,-2526,1621,1935,34.1351100,-118.1457475,1.18,0.00,1.42,18,1,3,0,1,1
3538696,-5807,-1185,-3572,-4781,-183,-3572,4784.5,182.19,194.41,-912,-2588,-5526,-1645,1168,655,34.1351100,-118.1457475,1.18,0.00,1.42,18,1,3,0,1,1
3538706,-5807,-1185,-3572,-4781,-183,-3572,4784.5,182.19,194.41,-634,-2507,-5119,-881,731,-671,34.1351100,-118.1457475,1.18,0.00,1.42,18,1,3,0,1,1
3538716,-5807,-1185,-3572,-4781,-183,-3572,4784.5,182.19,194.41,-369,-2497,-4651,-436,492,-1974,34.1351100,-118.1457475,1.18,0.00,1.42,18,1,3,0,1,1
3538726,-5807,-1185,-3572,-4781,-183,-3572,4784.5,182.19,194.41,-22,-2720,-4086,65,742,-3583,34.1351100,-118.1457475,1.18,0.00,1.42,18,1,3,0,1,1
3538736,-5807,-1185,-3572,-4781,-183,-3572,4784.5,182.19,194.41,236,-2992,-3822,535,1121,-4254,34.1351100,-118.1457475,1.18,0.00,1.42,18,1,3,0,1,1
3538746,-5807,-1185,-3572,-4781,-183,-3572,4784.5,182.19,194.41,515,-3257,-3601,893,1492,-4593,34.1351100,-118.1457475,1.18,0.00,1.42,18,1,3,0,1,1
3538756,-5807,-1185,-3572,-4781,-183,-3572,4784.5,182.19,194.41,778,-3509,-3425,951,1829,-4695,34.1351100,-118.1457475,1.18,0.00,1.42,18,1,3,0,1,1
3538766,-5807,-972,-3512,-4781,30,-3512,4781.1,179.64,191.86,1064,-3882,-3281,644,2200,-4313,34.1351100,-118.1457474,0.21,0.00,1.42,18,1,3,0,1,1
3538776,-5807,-972,-3512,-4781,30,-3512,4781.1,179.64,191.86,1142,-4119,-3260,312,2208,-3770,34.1351100,-118.1457474,0.21,0.00,1.42,18,1,3,0,1,1
3538786,-5807,-972,-3512,-4781,30,-3512,4781.1,179.64,191.86,1121,-4337,-3291,-41,2126,-3040,34.1351100,-118.1457474,0.21,0.00,1.42,18,1,3,0,1,1
3538796,-5807,-972,-3512,-4781,30,-3512,4781.1,179.64,191.86,1021,-4525,-3389,-377,2097,-2156,34.1351100,-118.1457474,0.21,0.00,1.42,18,1,3,0,1,1
3538806,-5807,-972,-3512,-4781,30,-3512,4781.1,179.64,191.86,802,-4705,-3664,-739,2230,-923,34.1351100,-118.1457474,0.21,0.00,1.42,18,1,3,0,1,1
3538816,-5807,-972,-3512,-4781,30,-3512,4781.1,179.64,191.86,642,-4716,-3898,-671,2357,-203,34.1351100,-118.1457474,0.21,0.00,1.42,18,1,3,0,1,1
3538826,-5807,-972,-3512,-4781,30,-3512,4781.1,179.64,191.86,489,-4672,-4164,-421,2503,414,34.1351100,-118.1457474,0.21,0.00,1.42,18,1,3,0,1,1
3538836,-5807,-972,-3512,-4781,30,-3512,4781.1,179.64,191.86,339,-4599,-4421,-18,2562,834,34.1351100,-118.1457474,0.21,0.00,1.42,18,1,3,0,1,1
3538846,-5807,-972,-3512,-4781,30,-3512,4781.1,179.64,191.86,92,-4495,-4651,720,2320,1076,34.1351100,-118.1457474,0.21,0.00,1.42,18,1,3,0,1,1
3538856,-5807,-972,-3512,-4781,30,-3512,4781.1,179.64,191.86,-90,-4497,-4679,1087,1986,1174,34.1351100,-118.1457474,0.21,0.00,1.42,18,1,3,0,1,1
3538866,-5882,-930,-3512,-4856,72,-3512,4856.5,179.15,191.37,-250,-4553,-4655,1327,1534,1307,34.1351093,-118.1457476,0.21,0.00,1.42,18,1,3,0,1,1
3538876,-5882,-930,-3512,-4856,72,-3512,4856.5,179.15,191.37,-376,-4622,-4616,1367,1068,1468,34.1351093,-118.1457476,0.21,0.00,1.42,18,1,3,0,1,1
3538886,-5882,-930,-3512,-4856,72,-3512,4856.5,179.15,191.37,-535,-4722,-4679,1266,689,1802,34.1351093,-118.1457476,0.21,0.00,1.42,18,1,3,0,1,1
3538896,-5882,-930,-3512,-4856,72,-3512,4856.5,179.15,191.37,-607,-4788,-4778,1416,585,1918,34.1351093,-118.1457476,0.21,0.00,1.42,18,1,3,0,1,1
3538906,-5882,-930,-3512,-4856,72,-3512,4856.5,179.15,191.37,-642,-4860,-4839,1696,456,1903,34.1351093,-118.1457476,0.21,0.00,1.42,18,1,3,0,1,1
3538916,-5882,-930,-3512,-4856,72,-3512,4856.5,179.15,191.37,-683,-4947,-4857,1882,394,1884,34.1351093,-118.1457476,0.21,0.00,1.42,18,1,3,0,1,1
3538926,-5882,-930,-3512,-4856,72,-3512,4856.5,179.15,191.37,-753,-5108,-4911,1595,339,1850,34.1351093,-118.1457476,0.21,0.00,1.42,18,1,3,0,1,1
3538936,-5882,-930,-3512,-4856,72,-3512,4856.5,179.15,191.37,-725,-5256,-4998,1170,266,1729,34.1351093,-118.1457476,0.21,0.00,1.42,18,1,3,0,1,1
3538946,-5882,-930,-3512,-4856,72,-3512,4856.5,179.15,191.37,-675,-5447,-5090,722,75,1524,34.1351093,-118.1457476,0.21,0.00,1.42,18,1,3,0,1,1
3538956,-5882,-930,-3512,-4856,72,-3512,4856.5,179.15,191.37,-663,-5676,-5175,196,-204,1294,34.1351093,-118.1457476,0.21,0.00,1.42,18,1,3,0,1,1
3538966,-5807,-1022,-3410,-4781,-20,-3410,4781.0,180.24,192.46,-687,-6131,-5379,-595,-410,853,34.1351090,-118.1457477,0.63,0.00,1.42,18,1,3,0,1,1
3538976,-5807,-1022,-3410,-4781,-20,-3410,4781.0,180.24,192.46,-694,-6576,-5568,-949,-481,405,34.1351090,-118.1457477,0.63,0.00,1.42,18,1,3,0,1,1
3538986,-5807,-1022,-3410,-4781,-20,-3410,4781.0,180.24,192.46,-676,-7093,-5709,-1052,-574,-158,34.1351090,-118.1457477,0.63,0.00,1.42,18,1,3,0,1,1
3538996,-5807,-1022,-3410,-4781,-20,-3410,4781.0,180.24,192.46,-641,-7543,-5714,-996,-685,-687,34.1351090,-118.1457477,0.63,0.00,1.42,18,1,3,0,1,1
3539006,-5807,-1022,-3410,-4781,-20,-3410,4781.0,180.24,192.46,-606,-7890,-5498,-1335,-643,-695,34.1351090,-118.1457477,0.63,0.00,1.42,18,1,3,0,1,1
3539016,-5807,-1022,-3410,-4781,-20,-3410,4781.0,180.24,192.46,-574,-7886,-5424,-2024,-281,-187,34.1351090,-118.1457477,0.63,0.00,1.42,18,1,3,0,1,1
3539026,-5807,-1022,-3410,-4781,-20,-3410,4781.0,180.24,192.46,-497,-7736,-5617,-2980,361,446,34.1351090,-118.1457477,0.63,0.00,1.42,18,1,3,0,1,1
3539036,-5807,-1022,-3410,-4781,-20,-3410,4781.0,180.24,192.46,-350,-7495,-6149,-3823,1094,970,34.1351090,-118.1457477,0.63,0.00,1.42,18,1,3,0,1,1
3539046,-5807,-1022,-3410,-4781,-20,-3410,4781.0,180.24,192.46,69,-7013,-7225,-4310,1668,1227,34.1351090,-118.1457477,0.63,0.00,1.42,18,1,3,0,1,1
3539056,-5807,-1022,-3410,-4781,-20,-3410,4781.0,180.24,192.46,429,-6726,-7821,-4313,1621,1128,34.1351090,-118.1457477,0.63,0.00,1.42,18,1,3,0,1,1
3539066,-5812,-1017,-3485,-4786,-15,-3485,4786.0,180.18,192.40,723,-6568,-8308,-4073,1414,938,34.1351088,-118.1457479,0.71,0.00,1.42,18,1,3,0,1,1
3539076,-5812,-1017,-3485,-4786,-15,-3485,4786.0,180.18,192.40,980,-6425,-8705,-3364,863,787,34.1351088,-118.1457479,0.71,0.00,1.42,18,1,3,0,1,1
3539086,-5812,-1017,-3485,-4786,-15,-3485,4786.0,180.18,192.40,1327,-6079,-8930,-1332,577,910,34.1351088,-118.1457479,0.71,0.00,1.42,18,1,3,0,1,1
3539096,-5812,-1017,-3485,-4786,-15,-3485,4786.0,180.18,192.40,1440,-5766,-8758,149,271,1168,34.1351088,-118.1457479,0.71,0.00,1.42,18,1,3,0,1,1
3539106,-5812,-1017,-3485,-4786,-15,-3485,4786.0,180.18,192.40,1406,-5366,-8376,1293,166,1493,34.1351088,-118.1457479,0.71,0.00,1.42,18,1,3,0,1,1
3539116,-5812,-1017,-3485,-4786,-15,-3485,4786.0,180.18,192.40,1279,-4825,-7605,2191,339,1693,34.1351088,-118.1457479,0.71,0.00,1.42,18,1,3,0,1,1
3539126,-5812,-1017,-3485,-4786,-15,-3485,4786.0,180.18,192.40,1089,-3882,-6935,2611,544,1392,34.1351088,-118.1457479,0.71,0.00,1.42,18,1,3,0,1,1
3539136,-5812,-1017,-3485,-4786,-15,-3485,4786.0,180.18,192.40,971,-3417,-6239,3022,781,667,34.1351088,-118.1457479,0.71,0.00,1.42,18,1,3,0,1,1
3539146,-5812,-1017,-3485,-4786,-15,-3485,4786.0,180.18,192.40,858,-3176,-5513,3185,1015,-350,34.1351088,-118.1457479,0.71,0.00,1.42,18,1,3,0,1,1
3539156,-5812,-1017,-3485,-4786,-15,-3485,4786.0,180.18,192.40,789,-3135,-4432,2602,1289,-1998,34.1351088,-118.1457479,0.71,0.00,1.42,18,1,3,0,1,1
3539166,-5957,-967,-3507,-4931,35,-3507,4931.1,179.59,191.81,711,-3506,-3807,1580,1239,-2963,34.1351086,-118.1457480,0.29,0.00,1.42,18,1,3,0,1,1
3539176,-5957,-967,-3507,-4931,35,-3507,4931.1,179.59,191.81,633,-4044,-3322,177,802,-3632,34.1351086,-118.1457480,0.29,0.00,1.42,18,1,3,0,1,1
3539186,-5957,-967,-3507,-4931,35,-3507,4931.1,179.59,191.81,548,-4689,-3007,-1451,36,-3796,34.1351086,-118.1457480,0.29,0.00,1.42,18,1,3,0,1,1
3539196,-5957,-967,-3507,-4931,35,-3507,4931.1,179.59,191.81,432,-5523,-2847,-3869,-1247,-2965,34.1351086,-118.1457480,0.29,0.00,1.42,18,1,3,0,1,1
3539206,-5957,-967,-3507,-4931,35,-3507,4931.1,179.59,191.81,379,-5819,-2902,-5016,-1891,-1906,34.1351086,-118.1457480,0.29,0.00,1.42,18,1,3,0,1,1
3539216,-5957,-967,-3507,-4931,35,-3507,4931.1,179.59,191.81,343,-5891,-3027,-5658,-2062,-742,34.1351086,-118.1457480,0.29,0.00,1.42,18,1,3,0,1,1
3539226,-5957,-967,-3507,-4931,35,-3507,4931.1,179.59,191.81,325,-5805,-3241,-5832,-1658,321,34.1351086,-118.1457480,0.29,0.00,1.42,18,1,3,0,1,1
3539236,-5957,-967,-3507,-4931,35,-3507,4931.1,179.59,191.81,369,-5522,-3765,-5177,-456,1605,34.1351086,-118.1457480,0.29,0.00,1.42,18,1,3,0,1,1
3539246,-5957,-967,-3507,-4931,35,-3507,4931.1,179.59,191.81,391,-5280,-4178,-4359,379,2204,34.1351086,-118.1457480,0.29,0.00,1.42,18,1,3,0,1,1
3539256,-5957,-967,-3507,-4931,35,-3507,4931.1,179.59,191.81,395,-5016,-4580,-3425,1048,2698,34.1351086,-118.1457480,0.29,0.00,1.42,18,1,3,0,1,1
3539266,-5792,-955,-3750,-4766,47,-3750,4766.2,179.43,191.65,407,-4752,-4927,-2383,1423,2980,34.1351081,-118.1457482,1.43,166.58,1.42,18,1,3,0,1,1
3539276,-5792,-955,-3750,-4766,47,-3750,4766.2,179.43,191.65,426,-4394,-5221,-938,1230,3098,34.1351081,-118.1457482,1.43,166.58,1.42,18,1,3,0,1,1
3539286,-5792,-955,-3750,-4766,47,-3750,4766.2,179.43,191.65,420,-4168,-5216,-237,569,3044,34.1351081,-118.1457482,1.43,166.58,1.42,18,1,3,0,1,1
3539296,-5792,-955,-3750,-4766,47,-3750,4766.2,179.43,191.65,411,-3966,-5067,87,-378,2900,34.1351081,-118.1457482,1.43,166.58,1.42,18,1,3,0,1,1
3539306,-5792,-955,-3750,-4766,47,-3750,4766.2,179.43,191.65,398,-3810,-4805,9,-1419,2719,34.1351081,-118.1457482,1.43,166.58,1.42,18,1,3,0,1,1
3539316,-5792,-955,-3750,-4766,47,-3750,4766.2,179.43,191.65,350,-3673,-4327,-548,-2819,2494,34.1351081,-118.1457482,1.43,166.58,1.42,18,1,3,0,1,1
3539326,-5792,-955,-3750,-4766,47,-3750,4766.2,179.43,191.65,303,-3634,-4023,-1031,-3537,2378,34.1351081,-118.1457482,1.43,166.58,1.42,18,1,3,0,1,1
3539336,-5792,-955,-3750,-4766,47,-3750,4766.2,179.43,191.65,226,-3610,-3766,-1238,-3848,2140,34.1351081,-118.1457482,1.43,166.58,1.42,18,1,3,0,1,1
3539346,-5792,-955,-3750,-4766,47,-3750,4766.2,179.43,191.65,115,-3606,-3573,-1194,-3684,1781,34.1351081,-118.1457482,1.43,166.58,1.42,18,1,3,0,1,1
3539356,-5792,-955,-3750,-4766,47,-3750,4766.2,179.43,191.65,2,-3659,-3476,-1295,-2929,1122,34.1351081,-118.1457482,1.43,166.58,1.42,18,1,3,0,1,1
3539366,-5712,-1040,-3550,-4686,-38,-3550,4686.2,180.46,192.68,-15,-3736,-3562,-1348,-2307,614,34.1351077,-118.1457481,0.71,0.00,1.42,18,1,3,0,1,1
3539376,-5712,-1040,-3550,-4686,-38,-3550,4686.2,180.46,192.68,-29,-3877,-3748,-1105,-1713,-14,34.1351077,-118.1457481,0.71,0.00,1.42,18,1,3,0,1,1
3539386,-5712,-1040,-3550,-4686,-38,-3550,4686.2,180.46,192.68,-32,-4093,-3998,-524,-1208,-663,34.1351077,-118.1457481,0.71,0.00,1.42,18,1,3,0,1,1
3539396,-5712,-1040,-3550,-4686,-38,-3550,4686.2,180.46,192.68,54,-4524,-4385,456,-695,-1587,34.1351077,-118.1457481,0.71,0.00,1.42,18,1,3,0,1,1
3539406,-5712,-1040,-3550,-4686,-38,-3550,4686.2,180.46,192.68,89,-4869,-4620,861,-634,-2140,34.1351077,-118.1457481,0.71,0.00,1.42,18,1,3,0,1,1
3539416,-5712,-1040,-3550,-4686,-38,-3550,4686.2,180.46,192.68,128,-5228,-4868,1087,-620,-2640,34.1351077,-118.1457481,0.71,0.00,1.42,18,1,3,0,1,1
3539426,-5712,-1040,-3550,-4686,-38,-3550,4686.2,180.46,192.68,261,-5596,-5173,1239,-595,-3086,34.1351077,-118.1457481,0.71,0.00,1.42,18,1,3,0,1,1
3539436,-5712,-1040,-3550,-4686,-38,-3550,4686.2,180.46,192.68,615,-6118,-5660,1269,-801,-3303,34.1351077,-118.1457481,0.71,0.00,1.42,18,1,3,0,1,1
3539446,-5712,-1040,-3550,-4686,-38,-3550,4686.2,180.46,192.68,844,-6349,-5916,1053,-1103,-3141,34.1351077,-118.1457481,0.71,0.00,1.42,18,1,3,0,1,1
3539456,-5712,-1040,-3550,-4686,-38,-3550,4686.2,180.46,192.68,990,-6482,-6140,667,-1410,-2781,34.1351077,-118.1457481,0.71,0.00,1.42,18,1,3,0,1,1
3539466,-5712,-862,-3635,-4686,140,-3635,4688.1,178.29,190.50,1039,-6561,-6398,172,-1659,-2223,34.1351070,-118.1457480,1.19,161.99,1.42,18,1,3,0,1,1
3539476,-5712,-862,-3635,-4686,140,-3635,4688.1,178.29,190.50,911,-6624,-6842,-447,-1815,-1449,34.1351070,-118.1457480,1.19,161.99,1.42,18,1,3,0,1,1
3539486,-5712,-862,-3635,-4686,140,-3635,4688.1,178.29,190.50,637,-6710,-7066,-333,-1804,-1397,34.1351070,-118.1457480,1.19,161.99,1.42,18,1,3,0,1,1
3539496,-5712,-862,-3635,-4686,140,-3635,4688.1,178.29,190.50,349,-6907,-7133,281,-1729,-1952,34.1351070,-118.1457480,1.19,161.99,1.42,18,1,3,0,1,1
3539506,-5712,-862,-3635,-4686,140,-3635,4688.1,178.29,190.50,241,-7139,-7053,1075,-1389,-2988,34.1351070,-118.1457480,1.19,161.99,1.42,18,1,3,0,1,1
3539516,-5712,-862,-3635,-4686,140,-3635,4688.1,178.29,190.50,593,-7569,-6830,1891,-689,-4482,34.1351070,-118.1457480,1.19,161.99,1.42,18,1,3,0,1,1
3539526,-5712,-862,-3635,-4686,140,-3635,4688.1,178.29,190.50,997,-7971,-6726,1710,-731,-4938,34.1351070,-118.1457480,1.19,161.99,1.42,18,1,3,0,1,1
3539536,-5712,-862,-3635,-4686,140,-3635,4688.1,178.29,190.50,1318,-8304,-6713,936,-877,-4787,34.1351070,-118.1457480,1.19,161.99,1.42,18,1,3,0,1,1
3539546,-5712,-862,-3635,-4686,140,-3635,4688.1,178.29,190.50,1539,-8440,-6822,27,-793,-3974,34.1351070,-118.1457480,1.19,161.99,1.42,18,1,3,0,1,1
3539556,-5712,-862,-3635,-4686,140,-3635,4688.1,178.29,190.50,1715,-8321,-7348,-970,-225,-1712,34.1351070,-118.1457480,1.19,161.99,1.42,18,1,3,0,1,1
3539566,-5760,-780,-3605,-4734,222,-3605,4739.2,177.32,189.53,1609,-7970,-7788,-1040,236,-19,34.1351060,-118.1457478,2.21,165.59,1.42,18,1,3,0,1,1
3539576,-5760,-780,-3605,-4734,222,-3605,4739.2,177.32,189.53,1341,-7312,-8118,-722,586,1495,34.1351060,-118.1457478,2.21,165.59,1.42,18,1,3,0,1,1
3539586,-5760,-780,-3605,-4734,222,-3605,4739.2,177.32,189.53,975,-6470,-8322,-246,743,2506,34.1351060,-118.1457478,2.21,165.59,1.42,18,1,3,0,1,1
3539596,-5760,-780,-3605,-4734,222,-3605,4739.2,177.32,189.53,268,-5344,-8259,1036,767,2637,34.1351060,-118.1457478,2.21,165.59,1.42,18,1,3,0,1,1
3539606,-5760,-780,-3605,-4734,222,-3605,4739.2,177.32,189.53,-234,-4886,-7879,2284,693,1968,34.1351060,-118.1457478,2.21,165.59,1.42,18,1,3,0,1,1
