# cc-radar field sample
# firmware=v26.08.01 build=1785625163
# rtc=2026-08-02 00:03:15
# label=walk-straight
# uptime_ms=3746448
# compass_cal_x=-1026 compass_cal_y=-1002 compass_cal_z=0 calibrated=1
# declination_deg=12.216 declination_valid=1
# h0=unknown
# zoom=3
# accel_enabled=1 accel_addr=0x6B gyro_enabled=0
# mag_scale_lsb_per_uT=120 accel_lsb_per_g=8192 gyro_lsb_per_dps=128
# nominal_rate_hz=10
# i2c_start_ops=55541 i2c_start_fails=20
ms,mx,my,mz,cx,cy,cz,h_mag,heading_mag,heading_true,ax,ay,az,gx,gy,gz,lat,lon,speed_kn,course,hdop,sats,fix_valid,zoom,mag_overflow,accel_valid,gyro_valid
3746561,-4127,-925,-6172,-3101,77,-6172,3102.0,178.58,190.79,-115,-1116,-8919,0,0,0,34.1343874,-118.1457299,0.54,0.00,1.22,20,1,3,0,1,0
3746661,-4132,-770,-6227,-3106,232,-6227,3114.7,175.73,187.94,-769,-1300,-7826,0,0,0,34.1343871,-118.1457299,0.83,0.00,1.22,20,1,3,0,1,0
3746761,-4147,-712,-6195,-3121,290,-6195,3134.4,174.69,186.91,-913,-203,-6887,0,0,0,34.1343866,-118.1457299,1.23,163.18,1.22,20,1,3,0,1,0
3746861,-4095,-617,-6280,-3069,385,-6280,3093.1,172.85,185.07,-661,-1532,-6756,0,0,0,34.1343861,-118.1457300,1.09,180.79,1.22,20,1,3,0,1,0
3746961,-4082,-572,-6287,-3056,430,-6287,3086.1,171.99,184.21,59,-1383,-6748,0,0,0,34.1343856,-118.1457302,1.36,184.03,1.22,20,1,3,0,1,0
3747061,-4072,-645,-6247,-3046,357,-6247,3066.8,173.32,185.53,-227,-1681,-7505,0,0,0,34.1343852,-118.1457305,1.07,174.52,1.22,20,1,3,0,1,0
3747161,-4100,-602,-6232,-3074,400,-6232,3099.9,172.59,184.80,-352,-2828,-8772,0,0,0,34.1343848,-118.1457306,1.39,170.88,1.22,20,1,3,0,1,0
3747261,-4015,-540,-6280,-2989,462,-6280,3024.5,171.21,183.43,535,-812,-9409,0,0,0,34.1343838,-118.1457304,1.80,166.86,1.22,20,1,3,0,1,0
3747361,-4127,-842,-6217,-3101,160,-6217,3105.1,177.05,189.26,-53,155,-6513,0,0,0,34.1343829,-118.1457303,1.47,176.23,1.22,20,1,3,0,1,0
3747461,-4202,-727,-6212,-3176,275,-6212,3187.9,175.05,187.27,-358,-1366,-6831,0,0,0,34.1343818,-118.1457303,2.02,193.23,1.22,20,1,3,0,1,0
3747561,-4240,-692,-6135,-3214,310,-6135,3228.9,174.49,186.71,312,-1077,-6020,0,0,0,34.1343803,-118.1457299,2.17,186.10,1.22,20,1,3,0,1,0
3747661,-4227,-785,-6172,-3201,217,-6172,3208.3,176.12,188.34,-186,-2090,-7706,0,0,0,34.1343793,-118.1457298,1.45,178.50,1.22,20,1,3,0,1,0
3747761,-4227,-620,-6185,-3201,382,-6185,3223.7,173.19,185.41,714,-3661,-9229,0,0,0,34.1343782,-118.1457299,1.38,165.14,1.22,20,1,3,0,1,0
3747861,-4222,-660,-6190,-3196,342,-6190,3214.2,173.89,186.11,-590,-707,-6919,0,0,0,34.1343770,-118.1457300,1.83,168.47,1.22,20,1,3,0,1,0
3747961,-4202,-742,-6205,-3176,260,-6205,3186.6,175.32,187.54,-200,762,-6759,0,0,0,34.1343756,-118.1457301,2.37,176.80,1.22,20,1,3,0,1,0
3748061,-4152,-530,-6205,-3126,472,-6205,3161.4,171.41,183.63,856,-1573,-5814,0,0,0,34.1343743,-118.1457303,2.39,184.36,1.22,20,1,3,0,1,0
3748161,-4270,-530,-6167,-3244,472,-6167,3278.2,171.72,183.94,-450,-1274,-6639,0,0,0,34.1343731,-118.1457306,2.05,184.21,1.22,20,1,3,0,1,0
3748261,-4162,-702,-6260,-3136,300,-6260,3150.3,174.54,186.75,-481,-2405,-9873,0,0,0,34.1343718,-118.1457308,2.04,180.40,1.22,21,1,3,0,1,0
3748361,-4142,-727,-6302,-3116,275,-6302,3128.1,174.96,187.17,1446,163,-10324,0,0,0,34.1343709,-118.1457309,1.51,172.45,1.22,21,1,3,0,1,0
3748461,-4255,-795,-6250,-3229,207,-6250,3235.6,176.33,188.55,435,-1044,-5145,0,0,0,34.1343699,-118.1457311,1.53,179.44,1.22,21,1,3,0,1,0
3748561,-4162,-987,-6255,-3136,15,-6255,3136.0,179.73,191.94,-658,-239,-7103,0,0,0,34.1343689,-118.1457314,1.18,189.87,1.22,21,1,3,0,1,0
3748661,-4315,-1012,-6107,-3289,-10,-6107,3289.0,180.17,192.39,-454,-1742,-6650,0,0,0,34.1343679,-118.1457318,1.11,199.00,1.22,20,1,3,0,1,0
3748761,-4292,-805,-6120,-3266,197,-6120,3271.9,176.55,188.76,120,-1492,-9211,0,0,0,34.1343669,-118.1457320,1.26,192.36,1.22,20,1,3,0,1,0
3748861,-4245,-842,-6190,-3219,160,-6190,3223.0,177.15,189.37,-554,244,-10388,0,0,0,34.1343659,-118.1457321,1.48,184.11,1.22,21,1,3,0,1,0
3748961,-4207,-862,-6270,-3181,140,-6270,3184.1,177.48,189.70,-1299,529,-6357,0,0,0,34.1343648,-118.1457323,1.64,179.15,1.22,21,1,3,0,1,0
3749061,-4162,-525,-6275,-3136,477,-6275,3172.1,171.35,183.57,1194,-1315,-5143,0,0,0,34.1343636,-118.1457323,2.16,174.38,1.22,21,1,3,0,1,0
3749161,-4227,-620,-6157,-3201,382,-6157,3223.7,173.19,185.41,7,-1462,-6598,0,0,0,34.1343625,-118.1457324,2.04,172.80,1.22,21,1,3,0,1,0
3749261,-4170,-717,-6190,-3144,285,-6190,3156.9,174.82,187.04,-981,-895,-10823,0,0,0,34.1343616,-118.1457323,1.76,174.07,1.22,21,1,3,0,1,0
3749361,-4320,-722,-6125,-3294,280,-6125,3305.9,175.14,187.36,1191,-1493,-9624,0,0,0,34.1343606,-118.1457323,1.64,175.99,1.22,21,1,3,0,1,0
3749461,-4325,-712,-6082,-3299,290,-6082,3311.7,174.98,187.19,653,-1275,-5686,0,0,0,34.1343595,-118.1457323,1.83,170.76,1.22,21,1,3,0,1,0
3749561,-4240,-935,-6162,-3214,67,-6162,3214.7,178.81,191.02,-548,-377,-6747,0,0,0,34.1343584,-118.1457323,1.88,176.01,1.22,21,1,3,0,1,0
3749661,-4340,-940,-6080,-3314,62,-6080,3314.6,178.93,191.14,-158,-1489,-5723,0,0,0,34.1343573,-118.1457323,1.91,177.49,1.22,21,1,3,0,1,0
3749761,-4315,-810,-6140,-3289,192,-6140,3294.6,176.66,188.88,460,-975,-9754,0,0,0,34.1343561,-118.1457323,2.00,178.32,1.22,21,1,3,0,1,0
3749861,-4260,-752,-6147,-3234,250,-6147,3243.6,175.58,187.80,332,-536,-11460,0,0,0,34.1343548,-118.1457324,2.13,177.71,1.22,21,1,3,0,1,0
3749961,-4282,-810,-6145,-3256,192,-6145,3261.7,176.63,188.84,-1368,207,-6101,0,0,0,34.1343537,-118.1457323,1.63,176.87,1.22,21,1,3,0,1,0
3750062,-4152,-577,-6180,-3126,425,-6180,3154.8,172.26,184.47,1248,-1105,-5065,0,0,0,34.1343528,-118.1457323,0.93,169.66,1.22,21,1,3,0,1,0
3750161,-4175,-597,-6157,-3149,405,-6157,3174.9,172.67,184.89,-216,-1075,-6561,0,0,0,34.1343517,-118.1457321,1.68,148.30,1.22,21,1,3,0,1,0
3750261,-4087,-525,-6172,-3061,477,-6172,3097.9,171.14,183.36,134,-1090,-9279,0,0,0,34.1343509,-118.1457323,1.71,169.14,1.22,21,1,3,0,1,0
3750361,-4132,-670,-6190,-3106,332,-6190,3123.7,173.90,186.12,365,-432,-11021,0,0,0,34.1343500,-118.1457326,1.55,176.66,1.22,21,1,3,0,1,0
3750461,-4185,-862,-6162,-3159,140,-6162,3162.1,177.46,189.68,1045,-274,-5668,0,0,0,34.1343491,-118.1457326,1.64,174.26,1.22,21,1,3,0,1,0
3750561,-3977,-982,-6260,-2951,20,-6260,2951.1,179.61,191.83,-583,-136,-7021,0,0,0,34.1343484,-118.1457328,1.47,183.77,1.22,21,1,3,0,1,0
3750661,-4207,-1112,-6212,-3181,-110,-6212,3182.9,181.98,194.20,-939,-764,-5882,0,0,0,34.1343478,-118.1457332,1.67,192.65,1.22,21,1,3,0,1,0
3750761,-4202,-940,-6152,-3176,62,-6152,3176.6,178.88,191.10,697,-1728,-8419,0,0,0,34.1343471,-118.1457339,1.83,195.04,1.22,21,1,3,0,1,0
3750861,-4240,-815,-6145,-3214,187,-6145,3219.4,176.67,188.89,835,-1954,-11071,0,0,0,34.1343463,-118.1457341,1.84,183.42,1.22,21,1,3,0,1,0
3750961,-4200,-820,-6167,-3174,182,-6167,3179.2,176.72,188.93,-1648,-15,-6208,0,0,0,34.1343453,-118.1457348,2.49,194.00,1.22,21,1,3,0,1,0
3751061,-4072,-617,-6217,-3046,385,-6217,3070.2,172.80,185.01,1195,-517,-5745,0,0,0,34.1343445,-118.1457356,2.50,198.21,1.22,21,1,3,0,1,0
3751161,-4025,-530,-6270,-2999,472,-6270,3035.9,171.06,183.27,255,-1128,-6069,0,0,0,34.1343434,-118.1457361,2.76,193.84,1.22,21,1,3,0,1,0
3751261,-4087,-650,-6205,-3061,352,-6205,3081.2,173.44,185.66,-640,-720,-8240,0,0,0,34.1343424,-118.1457364,2.32,183.20,1.22,21,1,3,0,1,0
3751361,-4040,-795,-6270,-3014,207,-6270,3021.1,176.07,188.29,-64,-2124,-10227,0,0,0,34.1343412,-118.1457364,2.77,177.92,1.22,21,1,3,0,1,0
3751461,-4115,-800,-6222,-3089,202,-6222,3095.6,176.26,188.47,1072,778,-6961,0,0,0,34.1343393,-118.1457354,3.33,173.10,1.22,21,1,3,0,1,0
3751561,-4087,-915,-6335,-3061,87,-6335,3062.2,178.37,190.59,-1140,-1368,-6347,0,0,0,34.1343378,-118.1457350,2.66,177.82,1.22,21,1,3,0,1,0
3751661,-4100,-1210,-6227,-3074,-208,-6227,3081.0,183.87,196.09,-998,-702,-6046,0,0,0,34.1343369,-118.1457350,2.10,185.39,1.22,21,1,3,0,1,0
3751761,-4232,-1002,-6157,-3206,0,-6157,3206.0,180.00,192.22,485,-1919,-7396,0,0,0,34.1343358,-118.1457347,2.03,181.73,1.22,21,1,3,0,1,0
3751861,-4170,-747,-6167,-3144,255,-6167,3154.3,175.36,187.58,1268,-2996,-10617,0,0,0,34.1343347,-118.1457345,2.44,179.11,1.22,21,1,3,0,1,0
3751961,-4105,-877,-6195,-3079,125,-6195,3081.5,177.68,189.89,-1540,-714,-7362,0,0,0,34.1343336,-118.1457345,2.38,183.47,1.22,21,1,3,0,1,0
3752061,-4077,-742,-6287,-3051,260,-6287,3062.1,175.13,187.35,-737,1576,-5942,0,0,0,34.1343325,-118.1457344,2.68,182.48,1.22,21,1,3,0,1,0
3752161,-3992,-530,-6380,-2966,472,-6380,3003.3,170.96,183.17,963,-1468,-5943,0,0,0,34.1343312,-118.1457343,2.94,182.99,1.22,21,1,3,0,1,0
3752261,-3937,-635,-6400,-2911,367,-6400,2934.0,172.81,185.03,-360,-1583,-7086,0,0,0,34.1343296,-118.1457344,3.00,184.06,1.22,21,1,3,0,1,0
3752361,-3880,-692,-6412,-2854,310,-6412,2870.8,173.80,186.02,-215,-1839,-10961,0,0,0,34.1343281,-118.1457348,2.38,188.47,1.22,21,1,3,0,1,0
3752461,-4035,-805,-6345,-3009,197,-6345,3015.4,176.25,188.47,464,830,-8455,0,0,0,34.1343270,-118.1457351,1.65,184.92,1.22,21,1,3,0,1,0
3752561,-4082,-925,-6340,-3056,77,-6340,3057.0,178.56,190.77,-414,-1381,-5654,0,0,0,34.1343257,-118.1457352,1.70,178.51,1.22,21,1,3,0,1,0
3752661,-3945,-1085,-6455,-2919,-83,-6455,2920.2,181.63,193.84,-867,241,-7456,0,0,0,34.1343248,-118.1457353,2.16,180.22,1.22,21,1,3,0,1,0
3752761,-4067,-1055,-6395,-3041,-53,-6395,3041.5,181.00,193.21,161,-1862,-6415,0,0,0,34.1343236,-118.1457354,2.16,180.55,1.22,21,1,3,0,1,0
3752861,-3880,-1122,-6427,-2854,-120,-6427,2856.5,182.41,194.62,-509,-244,-9826,0,0,0,34.1343223,-118.1457353,2.28,170.41,1.22,21,1,3,0,1,0
3752961,-3857,-1080,-6507,-2831,-78,-6507,2832.1,181.58,193.79,-853,1113,-10618,0,0,0,34.1343211,-118.1457353,2.21,170.17,1.22,21,1,3,0,1,0
3753061,-3862,-987,-6520,-2836,15,-6520,2836.0,179.70,191.91,-915,911,-6325,0,0,0,34.1343199,-118.1457353,2.34,171.37,1.22,21,1,3,0,1,0
3753161,-3837,-805,-6600,-2811,197,-6600,2817.9,175.99,188.21,925,-255,-5770,0,0,0,34.1343187,-118.1457352,2.94,167.70,1.22,21,1,3,0,1,0
3753261,-3767,-660,-6510,-2741,342,-6510,2762.3,172.89,185.10,-83,-608,-6848,0,0,0,34.1343176,-118.1457351,3.02,167.02,1.22,21,1,3,0,1,0
3753361,-3787,-675,-6510,-2761,327,-6510,2780.3,173.25,185.46,-130,-1074,-10292,0,0,0,34.1343164,-118.1457351,2.78,172.65,1.22,21,1,3,0,1,0
3753461,-3787,-742,-6525,-2761,260,-6525,2773.2,174.62,186.84,1117,1214,-11287,0,0,0,34.1343153,-118.1457351,2.24,174.63,1.22,21,1,3,0,1,0
3753561,-4040,-790,-6385,-3014,212,-6385,3021.4,175.98,188.19,874,99,-4908,0,0,0,34.1343143,-118.1457350,2.23,176.35,1.22,21,1,3,0,1,0
3753661,-3955,-962,-6445,-2929,40,-6445,2929.3,179.22,191.43,-722,-575,-6853,0,0,0,34.1343135,-118.1457348,2.23,173.27,1.22,21,1,3,0,1,0
3753761,-4020,-1112,-6395,-2994,-110,-6395,2996.0,182.10,194.32,-464,-1083,-5525,0,0,0,34.1343126,-118.1457348,2.17,176.34,1.22,21,1,3,0,1,0
3753861,-4040,-1055,-6385,-3014,-53,-6385,3014.5,181.01,193.22,-138,-980,-8354,0,0,0,34.1343122,-118.1457345,2.03,172.14,1.22,21,1,3,0,1,0
3753961,-3912,-857,-6475,-2886,145,-6475,2889.6,177.12,189.34,1364,-433,-11817,0,0,0,34.1343116,-118.1457344,1.98,171.62,1.22,21,1,3,0,1,0
3754061,-4007,-857,-6445,-2981,145,-6445,2984.5,177.22,189.43,-1505,-488,-6238,0,0,0,34.1343101,-118.1457348,2.58,183.93,1.33,20,1,3,0,1,0
3754161,-3890,-852,-6482,-2864,150,-6482,2867.9,177.00,189.22,137,25,-6093,0,0,0,34.1343086,-118.1457353,3.22,190.40,1.33,20,1,3,0,1,0
3754261,-3945,-602,-6470,-2919,400,-6470,2946.3,172.20,184.41,513,-1283,-5916,0,0,0,34.1343078,-118.1457356,2.24,154.28,1.33,20,1,3,0,1,0
3754361,-3982,-785,-6437,-2956,217,-6437,2964.0,175.80,188.02,-319,-107,-8078,0,0,0,34.1343069,-118.1457360,2.09,177.26,1.33,20,1,3,0,1,0
3754461,-3940,-795,-6502,-2914,207,-6502,2921.3,175.94,188.15,114,-2375,-10347,0,0,0,34.1343060,-118.1457364,1.86,176.02,1.33,20,1,3,0,1,0
3754561,-4067,-962,-6395,-3041,40,-6395,3041.3,179.25,191.46,686,1468,-6980,0,0,0,34.1343051,-118.1457368,1.90,178.97,1.33,20,1,3,0,1,0
3754661,-4057,-1117,-6482,-3031,-115,-6482,3033.2,182.17,194.39,-1246,-1763,-5882,0,0,0,34.1343043,-118.1457374,1.94,183.78,1.33,20,1,3,0,1,0
3754761,-3997,-1292,-6442,-2971,-290,-6442,2985.1,185.57,197.79,-287,-679,-6275,0,0,0,34.1343037,-118.1457379,1.68,186.30,1.41,19,1,3,0,1,0
3754861,-4127,-1070,-6427,-3101,-68,-6427,3101.7,181.26,193.47,13,-2152,-7350,0,0,0,34.1343028,-118.1457385,1.43,184.47,1.41,19,1,3,0,1,0
3754961,-4087,-967,-6442,-3061,35,-6442,3061.2,179.34,191.56,691,-1849,-10346,0,0,0,34.1343018,-118.1457390,1.65,188.55,1.41,19,1,3,0,1,0
3755061,-4110,-992,-6362,-3084,10,-6362,3084.0,179.81,192.03,-1225,98,-7716,0,0,0,34.1343008,-118.1457395,1.44,191.45,1.41,19,1,3,0,1,0
3755161,-3932,-960,-6470,-2906,42,-6470,2906.3,179.17,191.39,-371,1536,-6444,0,0,0,34.1342999,-118.1457400,1.98,191.29,1.41,19,1,3,0,1,0
3755261,-4002,-660,-6545,-2976,342,-6545,2995.6,173.44,185.66,1267,-1366,-5878,0,0,0,34.1342993,-118.1457404,1.94,193.91,1.41,19,1,3,0,1,0
3755361,-3987,-697,-6482,-2961,305,-6482,2976.7,174.12,186.34,-479,-761,-7163,0,0,0,34.1342989,-118.1457411,1.50,203.45,1.41,19,1,3,0,1,0
3755461,-3955,-760,-6515,-2929,242,-6515,2939.0,175.28,187.49,-526,-1893,-10828,0,0,0,34.1342980,-118.1457416,1.37,203.56,1.41,19,1,3,0,1,0
3755561,-4040,-867,-6427,-3014,135,-6427,3017.0,177.44,189.65,1299,623,-8875,0,0,0,34.1342973,-118.1457422,1.87,201.77,1.41,19,1,3,0,1,0
3755661,-4137,-987,-6315,-3111,15,-6315,3111.0,179.72,191.94,-441,-2304,-4765,0,0,0,34.1342970,-118.1457427,1.32,193.00,1.41,19,1,3,0,1,0
3755761,-4087,-1310,-6320,-3061,-308,-6320,3076.5,185.75,197.96,-1414,182,-6590,0,0,0,34.1342962,-118.1457429,1.72,188.61,1.41,19,1,3,0,1,0
3755861,-4115,-1330,-6335,-3089,-328,-6335,3106.4,186.06,198.28,-756,-848,-6486,0,0,0,34.1342956,-118.1457432,1.87,188.96,1.41,19,1,3,0,1,0
3755961,-4072,-997,-6412,-3046,5,-6412,3046.0,179.91,192.12,532,-1479,-11607,0,0,0,34.1342949,-118.1457435,1.52,187.47,1.41,19,1,3,0,1,0
3756061,-4175,-852,-6320,-3149,150,-6320,3152.6,177.27,189.49,-591,43,-9201,0,0,0,34.1342943,-118.1457440,1.30,184.60,1.41,19,1,3,0,1,0
3756161,-4152,-822,-6287,-3126,180,-6287,3131.2,176.70,188.92,-1013,731,-5906,0,0,0,34.1342935,-118.1457442,1.25,174.97,1.41,19,1,3,0,1,0
3756261,-4020,-620,-6335,-2994,382,-6335,3018.3,172.73,184.95,1452,-892,-5457,0,0,0,34.1342927,-118.1457442,1.61,176.82,1.41,19,1,3,0,1,0
3756361,-4052,-602,-6372,-3026,400,-6372,3052.3,172.47,184.69,-51,-761,-6375,0,0,0,34.1342919,-118.1457442,1.42,176.42,1.41,19,1,3,0,1,0
3756461,-4002,-712,-6422,-2976,290,-6422,2990.1,174.43,186.65,-653,-634,-9956,0,0,0,34.1342910,-118.1457444,1.42,190.67,1.41,19,1,3,0,1,0
3756561,-3970,-655,-6477,-2944,347,-6477,2964.4,173.28,185.49,1568,703,-12049,0,0,0,34.1342905,-118.1457449,1.57,191.76,1.41,19,1,3,0,1,0
3756661,-4222,-760,-6205,-3196,242,-6205,3205.1,175.67,187.89,539,123,-4891,0,0,0,34.1342903,-118.1457452,1.09,191.50,1.41,19,1,3,0,1,0
3756761,-4082,-950,-6307,-3056,52,-6307,3056.4,179.03,191.24,-1409,-543,-6015,0,0,0,34.1342899,-118.1457453,1.11,186.77,1.41,19,1,3,0,1,0
3756861,-4090,-1065,-6357,-3064,-63,-6357,3064.6,181.18,193.39,-528,-1127,-5735,0,0,0,34.1342892,-118.1457452,1.45,179.39,1.41,19,1,3,0,1,0
3756961,-4072,-842,-6352,-3046,160,-6352,3050.2,176.99,189.21,1178,-1434,-9678,0,0,0,34.1342889,-118.1457454,1.41,180.25,1.41,19,1,3,0,1,0
3757061,-3937,-827,-6412,-2911,175,-6412,2916.3,176.56,188.78,656,176,-11650,0,0,0,34.1342882,-118.1457460,2.02,191.92,1.41,19,1,3,0,1,0
3757161,-3987,-862,-6335,-2961,140,-6335,2964.3,177.29,189.51,-2071,82,-6044,0,0,0,34.1342875,-118.1457462,1.97,187.15,1.41,19,1,3,0,1,0
3757261,-3975,-645,-6345,-2949,357,-6345,2970.5,173.10,185.31,393,150,-5602,0,0,0,34.1342871,-118.1457466,2.40,184.59,1.41,19,1,3,0,1,0
3757361,-4030,-562,-6325,-3004,440,-6325,3036.1,171.67,183.88,331,-605,-6198,0,0,0,34.1342865,-118.1457468,2.24,182.95,1.41,18,1,3,0,1,0
3757461,-3977,-635,-6362,-2951,367,-6362,2973.7,172.91,185.13,33,-632,-8669,0,0,0,34.1342858,-118.1457471,2.34,182.38,1.27,19,1,3,0,1,0
3757561,-3907,-685,-6427,-2881,317,-6427,2898.4,173.72,185.94,758,-574,-10845,0,0,0,34.1342853,-118.1457474,1.99,184.52,1.27,19,1,3,0,1,0
3757661,-3932,-727,-6412,-2906,275,-6412,2919.0,174.59,186.81,613,890,-6751,0,0,0,34.1342848,-118.1457477,1.87,184.40,1.27,19,1,3,0,1,0
3757761,-3955,-877,-6417,-2929,125,-6417,2931.7,177.56,189.77,-736,-443,-6751,0,0,0,34.1342842,-118.1457481,2.00,185.29,1.27,19,1,3,0,1,0
3757861,-3997,-967,-6307,-2971,35,-6307,2971.2,179.33,191.54,-920,-475,-5254,0,0,0,34.1342836,-118.1457480,2.11,182.79,1.27,19,1,3,0,1,0
3757961,-4057,-752,-6320,-3031,250,-6320,3041.3,175.28,187.50,1399,-1799,-8115,0,0,0,34.1342830,-118.1457481,2.28,182.41,1.27,19,1,3,0,1,0
3758061,-3940,-530,-6395,-2914,472,-6395,2952.0,170.80,183.02,1159,-768,-12350,0,0,0,34.1342822,-118.1457486,2.64,190.89,1.27,19,1,3,0,1,0
3758161,-3977,-722,-6320,-2951,280,-6320,2964.3,174.58,186.80,-2094,122,-6207,0,0,0,34.1342812,-118.1457487,2.66,187.04,1.27,19,1,3,0,1,0
3758261,-3857,-495,-6445,-2831,507,-6445,2876.0,169.85,182.06,709,682,-6402,0,0,0,34.1342802,-118.1457486,2.38,181.95,1.27,19,1,3,0,1,0
3758361,-3837,-365,-6437,-2811,637,-6437,2882.3,167.23,179.45,832,-1245,-5813,0,0,0,34.1342792,-118.1457485,2.20,179.89,1.27,19,1,3,0,1,0
3758461,-3865,-467,-6405,-2839,535,-6405,2889.0,169.33,181.54,-30,-323,-8435,0,0,0,34.1342782,-118.1457485,2.30,181.98,1.27,19,1,3,0,1,0
3758561,-3885,-495,-6410,-2859,507,-6410,2903.6,169.94,182.16,181,-841,-10556,0,0,0,34.1342772,-118.1457485,2.20,181.79,1.27,19,1,3,0,1,0
3758661,-3975,-572,-6280,-2949,430,-6280,2980.2,171.70,183.92,1156,491,-6388,0,0,0,34.1342764,-118.1457485,2.24,178.01,1.27,19,1,3,0,1,0
3758761,-3870,-680,-6450,-2844,322,-6450,2862.2,173.54,185.76,-1085,-630,-5662,0,0,0,34.1342752,-118.1457482,2.79,173.68,1.27,19,1,3,0,1,0
3758862,-3772,-925,-6460,-2746,77,-6460,2747.1,178.39,190.61,-252,207,-6073,0,0,0,34.1342740,-118.1457478,2.62,171.75,1.27,19,1,3,0,1,0
3758961,-3777,-687,-6507,-2751,315,-6507,2769.0,173.47,185.68,1362,-1573,-8572,0,0,0,34.1342727,-118.1457478,2.66,175.97,1.27,19,1,3,0,1,0
3759061,-3715,-645,-6515,-2689,357,-6515,2712.6,172.44,184.65,1036,-2242,-12125,0,0,0,34.1342713,-118.1457481,3.18,184.41,1.27,19,1,3,0,1,0
3759161,-3865,-742,-6410,-2839,260,-6410,2850.9,174.77,186.98,-2689,477,-6691,0,0,0,34.1342698,-118.1457487,2.69,190.35,1.27,19,1,3,0,1,0
3759261,-3865,-552,-6445,-2839,450,-6445,2874.4,170.99,183.21,-307,1324,-5421,0,0,0,34.1342687,-118.1457488,3.01,190.90,1.27,19,1,3,0,1,0
3759361,-3682,-350,-6465,-2656,652,-6465,2734.9,166.21,178.42,1610,-1293,-5516,0,0,0,34.1342677,-118.1457488,2.25,189.35,1.27,19,1,3,0,1,0
3759461,-3665,-437,-6475,-2639,565,-6475,2698.8,167.92,180.13,113,-327,-8228,0,0,0,34.1342665,-118.1457491,2.24,186.65,1.22,20,1,3,0,1,0
3759561,-3655,-472,-6547,-2629,530,-6547,2681.9,168.60,180.82,-285,-1281,-11052,0,0,0,34.1342654,-118.1457496,2.17,188.32,1.22,20,1,3,0,1,0
3759661,-3837,-635,-6417,-2811,367,-6417,2834.9,172.56,184.78,647,1707,-8185,0,0,0,34.1342645,-118.1457500,1.90,188.97,1.22,20,1,3,0,1,0
3759761,-3885,-727,-6442,-2859,275,-6442,2872.2,174.51,186.72,-547,-1705,-5169,0,0,0,34.1342633,-118.1457501,2.53,186.86,1.31,19,1,3,0,1,0
3759861,-3940,-945,-6445,-2914,57,-6445,2914.6,178.88,191.10,-383,-794,-5497,0,0,0,34.1342618,-118.1457497,2.51,171.36,1.31,19,1,3,0,1,0
3759961,-3907,-857,-6432,-2881,145,-6432,2884.6,177.12,189.33,150,-1834,-7534,0,0,0,34.1342608,-118.1457498,2.11,167.87,1.31,19,1,3,0,1,0
3760061,-3832,-625,-6450,-2806,377,-6450,2831.2,172.35,184.56,1262,-1525,-11545,0,0,0,34.1342598,-118.1457501,2.04,181.17,1.31,19,1,3,0,1,0
3760161,-3890,-775,-6455,-2864,227,-6455,2873.0,175.47,187.68,-2426,10,-8033,0,0,0,34.1342588,-118.1457504,2.52,186.02,1.22,20,1,3,0,1,0
3760261,-3950,-697,-6432,-2924,305,-6432,2939.9,174.05,186.26,-964,1175,-5134,0,0,0,34.1342573,-118.1457503,3.01,183.41,1.22,20,1,3,0,1,0
3760361,-3805,-422,-6510,-2779,580,-6510,2838.9,168.21,180.43,1071,-1560,-4908,0,0,0,34.1342557,-118.1457501,2.90,180.40,1.22,20,1,3,0,1,0
3760461,-3842,-405,-6455,-2816,597,-6455,2878.6,168.03,180.25,-35,-510,-7271,0,0,0,34.1342538,-118.1457495,2.64,177.92,1.22,20,1,3,0,1,0
3760561,-3757,-395,-6477,-2731,607,-6477,2797.6,167.47,179.69,-376,-1884,-10725,0,0,0,34.1342525,-118.1457495,2.43,186.74,1.22,20,1,3,0,1,0
3760661,-3852,-495,-6492,-2826,507,-6492,2871.1,169.83,182.05,783,1281,-9314,0,0,0,34.1342516,-118.1457494,2.09,191.38,1.22,20,1,3,0,1,0
3760761,-3970,-742,-6455,-2944,260,-6455,2955.5,174.95,187.17,28,-1992,-4866,0,0,0,34.1342509,-118.1457490,1.57,186.57,1.22,20,1,3,0,1,0
3760861,-3870,-972,-6510,-2844,30,-6510,2844.2,179.40,191.61,-1923,332,-6622,0,0,0,34.1342499,-118.1457489,1.63,182.82,1.22,20,1,3,0,1,0
3760961,-3950,-972,-6437,-2924,30,-6437,2924.2,179.41,191.63,36,-1257,-6593,0,0,0,34.1342484,-118.1457488,2.22,178.35,1.22,20,1,3,0,1,0
3761061,-3927,-810,-6470,-2901,192,-6470,2907.3,176.21,188.43,201,-721,-9725,0,0,0,34.1342473,-118.1457492,1.93,183.19,1.22,20,1,3,0,1,0
3761161,-3857,-697,-6515,-2831,305,-6515,2847.4,173.85,186.07,-410,954,-11562,0,0,0,34.1342458,-118.1457492,2.78,182.78,1.22,20,1,3,0,1,0
3761261,-3932,-872,-6427,-2906,130,-6427,2908.9,177.44,189.65,-1289,881,-5635,0,0,0,34.1342443,-118.1457487,3.05,182.24,1.22,20,1,3,0,1,0
3761361,-3902,-592,-6465,-2876,410,-6465,2905.1,171.89,184.10,888,-585,-5147,0,0,0,34.1342429,-118.1457482,2.44,176.05,1.22,20,1,3,0,1,0
3761461,-3927,-567,-6450,-2901,435,-6450,2933.4,171.47,183.69,7,-1064,-5898,0,0,0,34.1342417,-118.1457481,2.48,178.01,1.22,20,1,3,0,1,0
3761561,-3827,-665,-6507,-2801,337,-6507,2821.2,173.14,185.36,-719,-643,-10159,0,0,0,34.1342405,-118.1457480,2.37,179.03,1.22,20,1,3,0,1,0
3761661,-3735,-572,-6530,-2709,430,-6530,2742.9,170.98,183.20,753,502,-12632,0,0,0,34.1342394,-118.1457480,2.02,184.12,1.22,20,1,3,0,1,0
3761761,-4072,-707,-6302,-3046,295,-6302,3060.3,174.47,186.68,1073,-142,-4928,0,0,0,34.1342383,-118.1457478,1.73,188.25,1.22,20,1,3,0,1,0
3761861,-4040,-935,-6432,-3014,67,-6432,3014.7,178.73,190.94,-1001,-594,-6210,0,0,0,34.1342371,-118.1457475,1.90,183.75,1.22,20,1,3,0,1,0
3761961,-4067,-1030,-6405,-3041,-28,-6405,3041.1,180.53,192.74,-507,-1168,-5474,0,0,0,34.1342362,-118.1457474,1.90,179.74,1.22,20,1,3,0,1,0
3762061,-3960,-915,-6367,-2934,87,-6367,2935.3,178.30,190.52,-262,-682,-8930,0,0,0,34.1342354,-118.1457474,1.82,177.08,1.22,20,1,3,0,1,0
3762161,-3912,-625,-6437,-2886,377,-6437,2910.5,172.56,184.77,1603,-838,-12271,0,0,0,34.1342347,-118.1457474,1.74,170.94,1.22,20,1,3,0,1,0
3762261,-4052,-635,-6417,-3026,367,-6417,3048.2,173.08,185.30,-2043,638,-5980,0,0,0,34.1342335,-118.1457473,2.29,181.34,1.22,20,1,3,0,1,0
3762361,-3955,-395,-6432,-2929,607,-6432,2991.2,168.29,180.51,1118,-892,-5220,0,0,0,34.1342324,-118.1457473,1.72,183.85,1.22,20,1,3,0,1,0
3762461,-3837,-442,-6477,-2811,560,-6477,2866.2,168.73,180.95,-90,-1006,-5674,0,0,0,34.1342309,-118.1457473,1.74,188.54,1.22,20,1,3,0,1,0
3762561,-3852,-547,-6475,-2826,455,-6475,2862.4,170.85,183.07,-998,-378,-8787,0,0,0,34.1342297,-118.1457471,1.62,179.82,1.22,20,1,3,0,1,0
3762661,-3815,-540,-6510,-2789,462,-6510,2827.0,170.59,182.81,946,-1441,-11418,0,0,0,34.1342283,-118.1457470,1.29,173.02,1.22,20,1,3,0,1,0
3762761,-4035,-747,-6427,-3009,255,-6427,3019.8,175.16,187.37,730,1136,-6297,0,0,0,34.1342270,-118.1457471,1.71,167.78,1.22,20,1,3,0,1,0
3762861,-3927,-950,-6470,-2901,52,-6470,2901.5,178.97,191.19,-1622,-1306,-5812,0,0,0,34.1342259,-118.1457473,1.58,166.50,1.22,20,1,3,0,1,0
3762961,-3912,-1165,-6520,-2886,-163,-6520,2890.6,183.23,195.45,-1005,-410,-5789,0,0,0,34.1342247,-118.1457474,1.86,182.06,1.22,20,1,3,0,1,0
3763061,-3907,-987,-6482,-2881,15,-6482,2881.0,179.70,191.92,352,-1444,-7786,0,0,0,34.1342236,-118.1457476,2.37,184.96,1.22,20,1,3,0,1,0
3763161,-3752,-790,-6535,-2726,212,-6535,2734.2,175.55,187.77,455,-2659,-11501,0,0,0,34.1342226,-118.1457478,2.25,177.27,1.22,20,1,3,0,1,0
3763261,-3875,-930,-6515,-2849,72,-6515,2849.9,178.55,190.77,-2536,836,-7147,0,0,0,34.1342218,-118.1457480,2.24,175.30,1.22,20,1,3,0,1,0
3763361,-3787,-717,-6525,-2761,285,-6525,2775.7,174.11,186.32,168,1057,-5760,0,0,0,34.1342206,-118.1457480,2.65,178.13,1.22,20,1,3,0,1,0
3763461,-3790,-410,-6547,-2764,592,-6547,2826.7,167.91,180.13,1068,-956,-5481,0,0,0,34.1342195,-118.1457481,2.24,178.73,1.22,20,1,3,0,1,0
3763561,-3782,-510,-6507,-2756,492,-6507,2799.6,169.88,182.09,-213,-220,-7620,0,0,0,34.1342182,-118.1457480,2.74,176.11,1.22,20,1,3,0,1,0
3763661,-3750,-535,-6572,-2724,467,-6572,2763.7,170.27,182.49,-170,-1555,-10467,0,0,0,34.1342169,-118.1457480,2.50,175.11,1.22,20,1,3,0,1,0
3763761,-3880,-665,-6525,-2854,337,-6525,2873.8,173.27,185.48,900,1526,-7964,0,0,0,34.1342156,-118.1457480,2.79,174.11,1.22,20,1,3,0,1,0
3763861,-3902,-692,-6492,-2876,310,-6492,2892.7,173.85,186.06,-578,-2349,-5169,0,0,0,34.1342144,-118.1457481,2.88,174.69,1.22,20,1,3,0,1,0
3763961,-3772,-1050,-6552,-2746,-48,-6552,2746.4,181.00,193.22,-756,-3,-6092,0,0,0,34.1342131,-118.1457484,2.40,182.90,1.22,20,1,3,0,1,0
3764061,-3800,-867,-6535,-2774,135,-6535,2777.3,177.21,189.43,529,-1342,-7902,0,0,0,34.1342122,-118.1457485,1.68,182.95,1.22,20,1,3,0,1,0
3764161,-3665,-697,-6520,-2639,305,-6520,2656.6,173.41,185.62,876,-1737,-11055,0,0,0,34.1342118,-118.1457486,1.66,179.97,1.22,20,1,3,0,1,0
3764261,-3720,-815,-6520,-2694,187,-6520,2700.5,176.03,188.25,-2174,1126,-7641,0,0,0,34.1342105,-118.1457484,2.30,176.00,1.22,20,1,3,0,1,0
3764361,-3637,-675,-6580,-2611,327,-6580,2631.4,172.86,185.08,-346,1796,-6183,0,0,0,34.1342094,-118.1457483,1.74,173.71,1.22,20,1,3,0,1,0
3764461,-3622,-480,-6605,-2596,522,-6605,2648.0,168.63,180.85,1853,-1343,-5615,0,0,0,34.1342081,-118.1457480,1.67,174.99,1.22,20,1,3,0,1,0
3764561,-3637,-567,-6545,-2611,435,-6545,2647.0,170.54,182.76,-945,-245,-7479,0,0,0,34.1342068,-118.1457479,2.25,178.38,1.22,20,1,3,0,1,0
3764661,-3627,-547,-6552,-2601,455,-6552,2640.5,170.08,182.29,-880,-880,-10452,0,0,0,34.1342056,-118.1457476,2.47,176.39,1.22,20,1,3,0,1,0
3764761,-3665,-660,-6497,-2639,342,-6497,2661.1,172.62,184.83,1361,1857,-9937,0,0,0,34.1342044,-118.1457472,2.93,172.57,1.22,20,1,3,0,1,0
3764861,-3740,-712,-6475,-2714,290,-6475,2729.4,173.90,186.12,547,-1228,-5388,0,0,0,34.1342035,-118.1457471,2.07,177.86,1.22,20,1,3,0,1,0
3764961,-3715,-910,-6475,-2689,92,-6475,2690.6,178.04,190.26,-664,-186,-5805,0,0,0,34.1342017,-118.1457463,2.45,180.71,1.22,20,1,3,0,1,0
3765061,-3660,-890,-6545,-2634,112,-6545,2636.4,177.57,189.78,116,-1013,-6043,0,0,0,34.1341993,-118.1457457,3.94,177.19,1.22,20,1,3,0,1,0
3765161,-3570,-790,-6655,-2544,212,-6655,2552.8,175.24,187.45,463,-663,-11323,0,0,0,34.1341985,-118.1457456,2.51,171.26,1.22,20,1,3,0,1,0
3765261,-3670,-687,-6600,-2644,315,-6600,2662.7,173.21,185.42,-66,1230,-10487,0,0,0,34.1341971,-118.1457458,2.88,195.20,1.22,20,1,3,0,1,0
3765361,-3787,-645,-6577,-2761,357,-6577,2784.0,172.63,184.85,-1395,1331,-6523,0,0,0,34.1341958,-118.1457460,2.51,178.28,1.22,20,1,3,0,1,0
3765461,-3752,-427,-6632,-2726,575,-6632,2786.0,168.09,180.31,1738,-1181,-5767,0,0,0,34.1341943,-118.1457455,1.71,177.78,1.22,20,1,3,0,1,0
3765561,-3767,-462,-6670,-2741,540,-6670,2793.7,168.85,181.07,2,-425,-5815,0,0,0,34.1341929,-118.1457456,1.36,169.21,1.22,20,1,3,0,1,0
3765661,-3810,-562,-6697,-2784,440,-6697,2818.6,171.02,183.24,-47,-531,-8873,0,0,0,34.1341913,-118.1457460,2.89,181.36,1.22,20,1,3,0,1,0
3765761,-3782,-655,-6747,-2756,347,-6747,2777.8,172.82,185.04,135,438,-11226,0,0,0,34.1341896,-118.1457464,3.17,176.68,1.22,20,1,3,0,1,0
3765861,-3865,-670,-6675,-2839,332,-6675,2858.3,173.33,185.55,961,77,-5970,0,0,0,34.1341882,-118.1457467,2.56,169.69,1.22,20,1,3,0,1,0
3765961,-3805,-935,-6710,-2779,67,-6710,2779.8,178.62,190.84,-1300,298,-7022,0,0,0,34.1341869,-118.1457471,2.23,172.78,1.22,20,1,3,0,1,0
3766061,-3945,-1050,-6772,-2919,-48,-6772,2919.4,180.94,193.16,-606,-729,-5001,0,0,0,34.1341858,-118.1457475,1.50,187.04,1.22,20,1,3,0,1,0
3766161,-3997,-915,-6720,-2971,87,-6720,2972.3,178.32,190.54,795,-1502,-8818,0,0,0,34.1341848,-118.1457477,1.57,183.42,1.22,20,1,3,0,1,0
3766261,-3970,-827,-6660,-2944,175,-6660,2949.2,176.60,188.81,211,-1097,-11335,0,0,0,34.1341836,-118.1457477,2.97,180.69,1.22,20,1,3,0,1,0
3766361,-4007,-675,-6572,-2981,327,-6572,2998.9,173.74,185.96,-1906,51,-6479,0,0,0,34.1341823,-118.1457476,2.99,179.68,1.22,20,1,3,0,1,0
3766461,-3970,-520,-6650,-2944,482,-6650,2983.2,170.70,182.92,934,627,-6146,0,0,0,34.1341810,-118.1457475,2.42,180.58,1.22,20,1,3,0,1,0
3766561,-3922,-490,-6642,-2896,512,-6642,2940.9,169.97,182.19,707,-831,-6039,0,0,0,34.1341801,-118.1457476,2.04,178.07,1.22,20,1,3,0,1,0
3766661,-4007,-592,-6580,-2981,410,-6580,3009.1,172.17,184.38,-507,-82,-7479,0,0,0,34.1341792,-118.1457477,2.14,177.26,1.22,20,1,3,0,1,0
3766761,-4142,-707,-6552,-3116,295,-6552,3129.9,174.59,186.81,-359,-3028,-11095,0,0,0,34.1341780,-118.1457478,2.30,173.80,1.22,20,1,3,0,1,0
3766861,-4137,-967,-6395,-3111,35,-6395,3111.2,179.36,191.57,63,2094,-9294,0,0,0,34.1341766,-118.1457476,2.39,176.68,1.22,20,1,3,0,1,0
3766961,-4217,-972,-6422,-3191,30,-6422,3191.1,179.46,191.68,673,-2338,-5571,0,0,0,34.1341751,-118.1457473,2.43,174.23,1.22,20,1,3,0,1,0
3767061,-4137,-1165,-6445,-3111,-163,-6445,3115.3,183.00,195.22,-1172,-352,-6225,0,0,0,34.1341740,-118.1457475,1.23,176.09,1.25,19,1,3,0,1,0
3767161,-4185,-1162,-6427,-3159,-160,-6427,3163.0,182.90,195.12,-492,-976,-7382,0,0,0,34.1341734,-118.1457480,1.13,183.96,1.25,19,1,3,0,1,0
3767261,-4245,-1022,-6302,-3219,-20,-6302,3219.1,180.36,192.57,-196,-1144,-8716,0,0,0,34.1341730,-118.1457484,1.33,193.33,1.25,19,1,3,0,1,0
3767361,-4132,-827,-6400,-3106,175,-6400,3110.9,176.78,188.99,415,386,-11488,0,0,0,34.1341722,-118.1457486,1.51,190.07,1.25,19,1,3,0,1,0
3767461,-4137,-755,-6395,-3111,247,-6395,3120.8,175.46,187.68,-1587,498,-6509,0,0,0,34.1341707,-118.1457487,2.78,185.55,1.22,20,1,3,0,1,0
3767561,-4095,-467,-6385,-3069,535,-6385,3115.3,170.11,182.33,1359,-819,-4823,0,0,0,34.1341692,-118.1457482,2.85,170.40,1.22,20,1,3,0,1,0
3767661,-4020,-535,-6422,-2994,467,-6422,3030.2,171.13,183.35,-464,-180,-6577,0,0,0,34.1341676,-118.1457476,2.02,172.68,1.22,20,1,3,0,1,0
3767761,-3992,-547,-6417,-2966,455,-6417,3000.7,171.28,183.49,-523,-1243,-8778,0,0,0,34.1341661,-118.1457473,2.03,183.21,1.22,20,1,3,0,1,0
3767861,-3945,-602,-6400,-2919,400,-6400,2946.3,172.20,184.41,337,-430,-10983,0,0,0,34.1341649,-118.1457472,1.51,184.34,1.28,19,1,3,0,1,0
3767961,-4040,-692,-6410,-3014,310,-6410,3029.9,174.13,186.34,365,1264,-5800,0,0,0,34.1341636,-118.1457471,2.13,175.51,1.28,19,1,3,0,1,0
3768061,-3917,-877,-6460,-2891,125,-6460,2893.7,177.52,189.74,-641,-550,-6592,0,0,0,34.1341620,-118.1457464,2.58,167.87,1.22,20,1,3,0,1,0
3768161,-3945,-1050,-6502,-2919,-48,-6502,2919.4,180.94,193.16,-518,-612,-5050,0,0,0,34.1341600,-118.1457455,2.41,171.77,1.22,20,1,3,0,1,0
3768261,-3880,-755,-6507,-2854,247,-6507,2864.7,175.05,187.27,925,-1805,-9006,0,0,0,34.1341586,-118.1457455,2.77,177.58,1.22,20,1,3,0,1,0
3768361,-3790,-650,-6590,-2764,352,-6590,2786.3,172.74,184.96,637,-896,-11729,0,0,0,34.1341575,-118.1457455,2.11,174.80,1.22,20,1,3,0,1,0
3768461,-3820,-702,-6557,-2794,300,-6557,2810.1,173.87,186.09,-1739,-81,-6731,0,0,0,34.1341566,-118.1457457,1.30,179.02,1.22,20,1,3,0,1,0
3768561,-3697,-650,-6600,-2671,352,-6600,2694.1,172.49,184.71,248,985,-6799,0,0,0,34.1341555,-118.1457458,1.20,183.47,1.22,20,1,3,0,1,0
3768661,-3777,-485,-6547,-2751,517,-6547,2799.2,169.36,181.57,50,-606,-6116,0,0,0,34.1341545,-118.1457461,1.57,184.95,1.22,20,1,3,0,1,0
3768761,-3955,-670,-6385,-2929,332,-6385,2947.8,173.53,185.75,-660,-747,-7288,0,0,0,34.1341535,-118.1457463,1.92,182.07,1.22,20,1,3,0,1,0
3768861,-3922,-687,-6437,-2896,315,-6437,2913.1,173.79,186.01,146,-725,-9750,0,0,0,34.1341525,-118.1457464,1.97,180.81,1.22,20,1,3,0,1,0
3768961,-3907,-837,-6470,-2881,165,-6470,2885.7,176.72,188.94,801,1458,-7538,0,0,0,34.1341515,-118.1457467,1.71,173.61,1.22,20,1,3,0,1,0
3769061,-3820,-827,-6502,-2794,175,-6502,2799.5,176.42,188.63,-613,-1335,-6436,0,0,0,34.1341505,-118.1457469,1.19,173.34,1.22,20,1,3,0,1,0
3769161,-3847,-1012,-6507,-2821,-10,-6507,2821.0,180.20,192.42,-410,-344,-5662,0,0,0,34.1341496,-118.1457473,2.20,187.35,1.22,20,1,3,0,1,0
3769261,-3907,-785,-6427,-2881,217,-6427,2889.2,175.69,187.91,509,-1561,-7747,0,0,0,34.1341483,-118.1457473,2.69,177.41,1.22,20,1,3,0,1,0
3769361,-3917,-752,-6465,-2891,250,-6465,2901.8,175.06,187.27,1103,-2263,-10282,0,0,0,34.1341473,-118.1457474,2.25,175.03,1.22,20,1,3,0,1,0
3769461,-3955,-810,-6372,-2929,192,-6372,2935.3,176.25,188.47,-1921,612,-7726,0,0,0,34.1341464,-118.1457476,2.66,183.81,1.33,19,1,3,0,1,0
3769561,-3837,-630,-6477,-2811,372,-6477,2835.5,172.46,184.68,-175,1265,-5384,0,0,0,34.1341455,-118.1457478,2.71,188.07,1.33,19,1,3,0,1,0
3769661,-3767,-510,-6627,-2741,492,-6627,2784.8,169.82,182.04,1433,-863,-6047,0,0,0,34.1341446,-118.1457480,2.79,182.65,1.33,19,1,3,0,1,0
3769761,-3715,-535,-6567,-2689,467,-6567,2729.3,170.15,182.36,-531,45,-8245,0,0,0,34.1341458,-118.1457480,2.12,177.83,1.33,19,1,3,0,1,0
3769861,-3805,-655,-6617,-2779,347,-6617,2800.6,172.88,185.10,-520,-889,-10692,0,0,0,34.1341458,-118.1457480,2.65,184.14,1.33,19,1,3,0,1,0
3769961,-3847,-742,-6417,-2821,260,-6417,2833.0,174.73,186.95,865,1072,-9002,0,0,0,34.1341451,-118.1457479,2.25,183.20,1.33,19,1,3,0,1,0
3770061,-3992,-815,-6412,-2966,187,-6412,2971.9,176.39,188.61,-259,-1649,-4923,0,0,0,34.1341447,-118.1457478,3.90,174.89,1.33,19,1,3,0,1,0
3770161,-3950,-1022,-6455,-2924,-20,-6455,2924.1,180.39,192.61,-871,108,-6224,0,0,0,34.1341438,-118.1457472,3.96,173.04,1.33,19,1,3,0,1,0
3770261,-3907,-945,-6450,-2881,57,-6450,2881.6,178.87,191.08,-398,-623,-6697,0,0,0,34.1341431,-118.1457470,2.58,179.75,1.33,19,1,3,0,1,0
3770361,-3875,-810,-6492,-2849,192,-6492,2855.5,176.14,188.36,716,-1384,-10280,0,0,0,34.1341421,-118.1457471,1.62,185.53,1.33,19,1,3,0,1,0
3770461,-3932,-910,-6552,-2906,92,-6552,2907.5,178.19,190.40,-1458,1022,-10212,0,0,0,34.1341411,-118.1457473,1.85,175.63,1.33,19,1,3,0,1,0
3770561,-4015,-935,-6450,-2989,67,-6450,2989.8,178.72,190.93,-1526,1256,-6378,0,0,0,34.1341401,-118.1457475,2.55,183.42,1.33,20,1,3,0,1,0
3770661,-3932,-500,-6442,-2906,502,-6442,2949.0,170.20,182.42,1842,-809,-5284,0,0,0,34.1341391,-118.1457477,2.72,188.77,1.43,19,1,3,0,1,0
3770761,-3862,-385,-6412,-2836,617,-6412,2902.3,167.73,179.94,-282,-914,-5956,0,0,0,34.1341382,-118.1457479,2.36,188.50,1.43,19,1,3,0,1,0
3770861,-3890,-572,-6442,-2864,430,-6442,2896.1,171.46,183.68,-747,-754,-9255,0,0,0,34.1341374,-118.1457480,1.93,187.37,1.43,18,1,3,0,1,0
3770961,-3825,-665,-6502,-2799,337,-6502,2819.2,173.13,185.35,-56,406,-11856,0,0,0,34.1341364,-118.1457480,1.69,176.39,1.43,18,1,3,0,1,0
3771061,-3937,-925,-6422,-2911,77,-6422,2912.0,178.48,190.70,69,860,-4136,0,0,0,34.1341353,-118.1457479,2.43,172.63,1.43,18,1,3,0,1,0
3771161,-3795,-967,-6577,-2769,35,-6577,2769.2,179.28,191.49,-1626,257,-7222,0,0,0,34.1341341,-118.1457479,3.03,180.44,1.43,18,1,3,0,1,0
3771261,-3815,-1030,-6460,-2789,-28,-6460,2789.1,180.58,192.79,-896,-420,-5421,0,0,0,34.1341334,-118.1457482,1.86,186.69,1.43,18,1,3,0,1,0
3771361,-3940,-665,-6437,-2914,337,-6437,2933.4,173.40,185.62,2274,-981,-9765,0,0,0,34.1341325,-118.1457483,1.73,183.03,1.43,18,1,3,0,1,0
3771461,-3825,-547,-6520,-2799,455,-6520,2835.7,170.77,182.98,42,-1304,-11953,0,0,0,34.1341316,-118.1457484,2.01,180.02,1.43,19,1,3,0,1,0
3771561,-3987,-617,-6372,-2961,385,-6372,2985.9,172.59,184.81,-2028,240,-5713,0,0,0,34.1341308,-118.1457487,1.52,182.06,1.43,19,1,3,0,1,0
3771661,-3927,-427,-6380,-2901,575,-6380,2957.4,168.79,181.01,1041,-265,-5218,0,0,0,34.1341297,-118.1457488,2.35,183.14,1.43,19,1,3,0,1,0
3771761,-3852,-250,-6475,-2826,752,-6475,2924.3,165.10,177.32,344,-491,-6781,0,0,0,34.1341286,-118.1457488,2.25,180.18,1.43,19,1,3,0,1,0
3771861,-3885,-400,-6395,-2859,602,-6395,2921.7,168.11,180.33,226,-679,-7790,0,0,0,34.1341276,-118.1457488,2.34,176.39,1.43,19,1,3,0,1,0
3771961,-3825,-485,-6487,-2799,517,-6487,2846.3,169.53,181.75,230,215,-10995,0,0,0,34.1341267,-118.1457488,1.89,175.20,1.51,18,1,3,0,1,0
3772061,-3857,-665,-6497,-2831,337,-6497,2851.0,173.21,185.43,391,1346,-6799,0,0,0,34.1341254,-118.1457488,2.68,174.44,1.51,18,1,3,0,1,0
3772161,-3827,-847,-6482,-2801,155,-6482,2805.3,176.83,189.05,-1260,-464,-5843,0,0,0,34.1341242,-118.1457487,2.50,176.27,1.43,19,1,3,0,1,0
3772261,-3875,-925,-6477,-2849,77,-6477,2850.0,178.45,190.67,-858,34,-5884,0,0,0,34.1341234,-118.1457485,2.00,175.68,1.43,19,1,3,0,1,0
3772361,-3870,-655,-6497,-2844,347,-6497,2865.1,173.04,185.26,1430,-1558,-8409,0,0,0,34.1341227,-118.1457484,1.88,178.59,1.43,19,1,3,0,1,0
3772461,-3857,-567,-6475,-2831,435,-6475,2864.2,171.26,183.48,857,-2498,-10882,0,0,0,34.1341218,-118.1457482,2.23,174.95,1.43,19,1,3,0,1,0
3772561,-4007,-702,-6442,-2981,300,-6442,2996.1,174.25,186.47,-2427,882,-6829,0,0,0,34.1341205,-118.1457480,2.83,177.38,1.43,19,1,3,0,1,0
3772661,-3800,-592,-6515,-2774,410,-6515,2804.1,171.59,183.81,-320,1253,-6127,0,0,0,34.1341193,-118.1457479,2.49,181.66,1.43,19,1,3,0,1,0
3772761,-3715,-380,-6612,-2689,622,-6612,2760.0,166.98,179.19,821,-723,-5798,0,0,0,34.1341184,-118.1457476,2.04,181.66,1.43,19,1,3,0,1,0
3772861,-3692,-390,-6595,-2666,612,-6595,2735.3,167.07,179.29,-16,101,-7547,0,0,0,34.1341176,-118.1457474,1.83,178.49,1.43,19,1,3,0,1,0
3772961,-3787,-417,-6622,-2761,585,-6622,2822.3,168.04,180.25,316,-952,-10226,0,0,0,34.1341168,-118.1457472,1.37,174.55,1.43,19,1,3,0,1,0
3773061,-3902,-525,-6557,-2876,477,-6557,2915.3,170.58,182.80,897,1775,-8308,0,0,0,34.1341162,-118.1457471,1.29,177.15,1.43,19,1,3,0,1,0
3773161,-3880,-597,-6525,-2854,405,-6525,2882.6,171.92,184.14,-876,-1519,-5842,0,0,0,34.1341155,-118.1457469,1.43,181.23,1.43,19,1,3,0,1,0
3773261,-3900,-775,-6525,-2874,227,-6525,2883.0,175.48,187.70,-564,-292,-5624,0,0,0,34.1341150,-118.1457466,1.88,188.29,1.43,19,1,3,0,1,0
3773361,-3890,-557,-6400,-2864,445,-6400,2898.4,171.17,183.38,673,-1757,-7237,0,0,0,34.1341141,-118.1457462,2.28,185.20,1.43,19,1,3,0,1,0
3773461,-3912,-375,-6400,-2886,627,-6400,2953.3,167.74,179.96,814,-1283,-10301,0,0,0,34.1341134,-118.1457459,2.58,181.10,1.43,19,1,3,0,1,0
3773561,-3965,-500,-6422,-2939,502,-6422,2981.6,170.31,182.52,-1457,1347,-8591,0,0,0,34.1341129,-118.1457457,1.96,175.89,1.33,20,1,3,0,1,0
3773661,-3932,-355,-6450,-2906,647,-6450,2977.2,167.45,179.66,-336,856,-6598,0,0,0,34.1341124,-118.1457452,3.01,176.43,1.33,20,1,3,0,1,0
3773761,-3767,-167,-6515,-2741,835,-6515,2865.4,163.06,175.27,1737,-1255,-5467,0,0,0,34.1341120,-118.1457446,3.12,177.38,1.33,20,1,3,0,1,0
3773861,-3805,-197,-6545,-2779,805,-6545,2893.2,163.85,176.06,-464,377,-6611,0,0,0,34.1341112,-118.1457444,2.87,179.41,1.33,20,1,3,0,1,0
3773961,-3790,-202,-6492,-2764,800,-6492,2877.4,163.86,176.07,-675,-1606,-10009,0,0,0,34.1341107,-118.1457442,2.07,182.55,1.33,20,1,3,0,1,0
3774061,-3677,-215,-6465,-2651,787,-6465,2765.4,163.47,175.68,1313,1493,-9937,0,0,0,34.1341100,-118.1457443,1.95,181.35,1.33,20,1,3,0,1,0
3774161,-3815,-412,-6487,-2789,590,-6487,2850.7,168.06,180.27,305,-1779,-5189,0,0,0,34.1341095,-118.1457444,1.34,182.11,1.33,20,1,3,0,1,0
3774262,-3725,-675,-6577,-2699,327,-6577,2718.7,173.09,185.31,-930,764,-7040,0,0,0,34.1341091,-118.1457447,0.97,184.57,1.33,20,1,3,0,1,0
3774361,-3740,-697,-6482,-2714,305,-6482,2731.1,173.59,185.80,-508,-664,-6672,0,0,0,34.1341083,-118.1457444,0.88,181.77,1.33,20,1,3,0,1,0
3774461,-3772,-495,-6445,-2746,507,-6445,2792.4,169.54,181.76,1324,677,-10204,0,0,0,34.1341074,-118.1457441,2.08,176.46,1.33,20,1,3,0,1,0
3774561,-3687,-442,-6552,-2661,560,-6552,2719.3,168.12,180.33,-1661,1370,-8669,0,0,0,34.1341065,-118.1457439,1.91,178.34,1.33,20,1,3,0,1,0
3774661,-3590,-437,-6610,-2564,565,-6610,2625.5,167.57,179.79,-1162,1643,-7332,0,0,0,34.1341058,-118.1457437,1.43,187.13,1.33,20,1,3,0,1,0
3774761,-3547,-197,-6600,-2521,805,-6600,2646.4,162.29,174.51,1191,-471,-5182,0,0,0,34.1341051,-118.1457437,1.33,192.81,1.33,20,1,3,0,1,0
3774861,-3602,-215,-6547,-2576,787,-6547,2693.5,163.01,175.23,-621,510,-7067,0,0,0,34.1341043,-118.1457437,0.71,194.33,1.33,20,1,3,0,1,0
3774961,-3697,-157,-6432,-2671,845,-6432,2801.5,162.44,174.66,452,-331,-9568,0,0,0,34.1341035,-118.1457437,1.27,181.53,1.33,20,1,3,0,1,0
3775061,-3805,-182,-6385,-2779,820,-6385,2897.5,163.56,175.78,1257,1666,-10365,0,0,0,34.1341028,-118.1457437,1.84,174.78,1.33,20,1,3,0,1,0
3775161,-3740,-135,-6400,-2714,867,-6400,2849.1,162.28,174.50,642,-1405,-5993,0,0,0,34.1341022,-118.1457436,1.02,164.53,1.33,20,1,3,0,1,0
3775261,-3557,-215,-6552,-2531,787,-6552,2650.5,162.73,174.94,-535,488,-6324,0,0,0,34.1341026,-118.1457444,0.74,0.00,1.33,20,1,3,0,1,0
3775361,-3515,-395,-6572,-2489,607,-6572,2561.9,166.29,178.51,12,722,-7037,0,0,0,34.1341026,-118.1457449,1.01,0.00,1.33,20,1,3,0,1,0
3775461,-3622,-95,-6442,-2596,907,-6442,2749.9,160.74,172.96,-16,961,-8577,0,0,0,34.1341023,-118.1457450,1.39,0.00,1.33,20,1,3,0,1,0
# rows_queued=290 rows_written=290 rows_dropped=0
# duration_ms=29100
# i2c_end_ops=56939 i2c_end_fails=20
