# cc-radar field sample
# firmware=v26.08.01 build=1785625163
# rtc=2026-08-01 23:59:59
# label=shake-100hz
# uptime_ms=3551190
# compass_cal_x=-1026 compass_cal_y=-1002 compass_cal_z=0 calibrated=1
# declination_deg=12.216 declination_valid=1
# h0=unknown
# zoom=3
# accel_enabled=1 accel_addr=0x6B gyro_enabled=1
# mag_scale_lsb_per_uT=120 accel_lsb_per_g=8192 gyro_lsb_per_dps=128
# nominal_rate_hz=100
# i2c_start_ops=40908 i2c_start_fails=12
ms,mx,my,mz,cx,cy,cz,h_mag,heading_mag,heading_true,ax,ay,az,gx,gy,gz,lat,lon,speed_kn,course,hdop,sats,fix_valid,zoom,mag_overflow,accel_valid,gyro_valid
3551203,-3912,-810,-6320,-2886,192,-6320,2892.4,176.19,188.41,238,-1613,-7257,848,-545,-447,34.1350109,-118.1457432,0.47,0.00,1.53,16,1,3,0,1,1
3551213,-3912,-810,-6320,-2886,192,-6320,2892.4,176.19,188.41,202,-1565,-7190,953,-566,-508,34.1350109,-118.1457432,0.47,0.00,1.53,16,1,3,0,1,1
3551223,-3912,-810,-6320,-2886,192,-6320,2892.4,176.19,188.41,163,-1597,-7125,1070,-516,-602,34.1350109,-118.1457432,0.47,0.00,1.53,16,1,3,0,1,1
3551233,-3912,-810,-6320,-2886,192,-6320,2892.4,176.19,188.41,133,-1642,-7063,1241,-419,-726,34.1350109,-118.1457432,0.47,0.00,1.53,16,1,3,0,1,1
3551243,-3912,-810,-6320,-2886,192,-6320,2892.4,176.19,188.41,121,-1682,-7009,1401,-297,-1022,34.1350109,-118.1457432,0.47,0.00,1.53,16,1,3,0,1,1
3551253,-3912,-810,-6320,-2886,192,-6320,2892.4,176.19,188.41,134,-1734,-6927,1504,-322,-1101,34.1350109,-118.1457432,0.47,0.00,1.53,16,1,3,0,1,1
3551263,-4040,-775,-6335,-3014,227,-6335,3022.5,175.69,187.91,139,-1740,-6849,1423,-418,-1110,34.1350101,-118.1457434,1.15,0.00,1.53,16,1,3,0,1,1
3551273,-4040,-775,-6335,-3014,227,-6335,3022.5,175.69,187.91,143,-1750,-6813,1199,-419,-1218,34.1350101,-118.1457434,1.15,0.00,1.53,16,1,3,0,1,1
3551283,-4040,-775,-6335,-3014,227,-6335,3022.5,175.69,187.91,155,-1824,-6902,760,-490,-1500,34.1350101,-118.1457434,1.15,0.00,1.53,16,1,3,0,1,1
3551293,-4040,-775,-6335,-3014,227,-6335,3022.5,175.69,187.91,169,-1814,-6975,586,-618,-1545,34.1350101,-118.1457434,1.15,0.00,1.53,16,1,3,0,1,1
3551303,-4040,-775,-6335,-3014,227,-6335,3022.5,175.69,187.91,173,-1758,-7066,364,-764,-1548,34.1350101,-118.1457434,1.15,0.00,1.53,16,1,3,0,1,1
3551313,-4040,-775,-6335,-3014,227,-6335,3022.5,175.69,187.91,165,-1725,-7212,0,-872,-1626,34.1350101,-118.1457434,1.15,0.00,1.53,16,1,3,0,1,1
3551323,-4040,-775,-6335,-3014,227,-6335,3022.5,175.69,187.91,129,-1660,-7472,-440,-881,-1754,34.1350101,-118.1457434,1.15,0.00,1.53,16,1,3,0,1,1
3551333,-4040,-775,-6335,-3014,227,-6335,3022.5,175.69,187.91,28,-1390,-7685,-350,-722,-1828,34.1350101,-118.1457434,1.15,0.00,1.53,16,1,3,0,1,1
3551343,-4040,-775,-6335,-3014,227,-6335,3022.5,175.69,187.91,-61,-1265,-7976,-96,-512,-1983,34.1350101,-118.1457434,1.15,0.00,1.53,16,1,3,0,1,1
3551353,-4040,-775,-6335,-3014,227,-6335,3022.5,175.69,187.91,-129,-1207,-8282,184,-428,-2270,34.1350101,-118.1457434,1.15,0.00,1.53,16,1,3,0,1,1
3551363,-4015,-732,-6340,-2989,270,-6340,3001.2,174.84,187.05,-182,-1127,-8596,891,-616,-2805,34.1350091,-118.1457435,0.63,0.00,1.53,16,1,3,0,1,1
3551373,-4015,-732,-6340,-2989,270,-6340,3001.2,174.84,187.05,-257,-1144,-8622,1561,-900,-3393,34.1350091,-118.1457435,0.63,0.00,1.53,16,1,3,0,1,1
3551383,-4015,-732,-6340,-2989,270,-6340,3001.2,174.84,187.05,-219,-1284,-8481,2248,-1094,-4201,34.1350091,-118.1457435,0.63,0.00,1.53,16,1,3,0,1,1
3551393,-4015,-732,-6340,-2989,270,-6340,3001.2,174.84,187.05,-8,-1532,-8247,2664,-1141,-4935,34.1350091,-118.1457435,0.63,0.00,1.53,16,1,3,0,1,1
3551403,-4015,-732,-6340,-2989,270,-6340,3001.2,174.84,187.05,486,-2000,-7952,2236,-1394,-5232,34.1350091,-118.1457435,0.63,0.00,1.53,16,1,3,0,1,1
3551413,-4015,-732,-6340,-2989,270,-6340,3001.2,174.84,187.05,706,-2285,-7812,1437,-1822,-4841,34.1350091,-118.1457435,0.63,0.00,1.53,16,1,3,0,1,1
3551423,-4015,-732,-6340,-2989,270,-6340,3001.2,174.84,187.05,757,-2465,-7733,542,-2172,-4093,34.1350091,-118.1457435,0.63,0.00,1.53,16,1,3,0,1,1
3551433,-4015,-732,-6340,-2989,270,-6340,3001.2,174.84,187.05,667,-2499,-7703,-267,-2212,-3141,34.1350091,-118.1457435,0.63,0.00,1.53,16,1,3,0,1,1
3551443,-4015,-732,-6340,-2989,270,-6340,3001.2,174.84,187.05,390,-2160,-7709,-1026,-1517,-1760,34.1350091,-118.1457435,0.63,0.00,1.53,16,1,3,0,1,1
3551453,-4015,-732,-6340,-2989,270,-6340,3001.2,174.84,187.05,216,-1745,-7835,-1361,-662,-1121,34.1350091,-118.1457435,0.63,0.00,1.53,16,1,3,0,1,1
3551463,-3885,-597,-6367,-2859,405,-6367,2887.5,171.94,184.15,136,-1364,-8097,-1784,175,-943,34.1350079,-118.1457437,0.59,0.00,1.46,17,1,3,0,1,1
3551473,-3885,-597,-6367,-2859,405,-6367,2887.5,171.94,184.15,193,-1102,-8384,-2267,723,-1126,34.1350079,-118.1457437,0.59,0.00,1.46,17,1,3,0,1,1
3551483,-3885,-597,-6367,-2859,405,-6367,2887.5,171.94,184.15,479,-848,-8776,-3044,917,-1406,34.1350079,-118.1457437,0.59,0.00,1.46,17,1,3,0,1,1
3551493,-3885,-597,-6367,-2859,405,-6367,2887.5,171.94,184.15,668,-698,-9053,-3688,633,-1423,34.1350079,-118.1457437,0.59,0.00,1.46,17,1,3,0,1,1
3551503,-3885,-597,-6367,-2859,405,-6367,2887.5,171.94,184.15,766,-531,-9297,-4142,210,-1411,34.1350079,-118.1457437,0.59,0.00,1.46,17,1,3,0,1,1
3551513,-3885,-597,-6367,-2859,405,-6367,2887.5,171.94,184.15,790,-388,-9435,-4139,-52,-1427,34.1350079,-118.1457437,0.59,0.00,1.46,17,1,3,0,1,1
3551523,-3885,-597,-6367,-2859,405,-6367,2887.5,171.94,184.15,742,-333,-9410,-3254,7,-1464,34.1350079,-118.1457437,0.59,0.00,1.46,17,1,3,0,1,1
3551533,-3885,-597,-6367,-2859,405,-6367,2887.5,171.94,184.15,637,-353,-9245,-2174,140,-1516,34.1350079,-118.1457437,0.59,0.00,1.46,17,1,3,0,1,1
3551543,-3885,-597,-6367,-2859,405,-6367,2887.5,171.94,184.15,470,-476,-8937,-1035,194,-1701,34.1350079,-118.1457437,0.59,0.00,1.46,17,1,3,0,1,1
3551553,-3885,-597,-6367,-2859,405,-6367,2887.5,171.94,184.15,253,-753,-8493,9,156,-1918,34.1350079,-118.1457437,0.59,0.00,1.46,17,1,3,0,1,1
3551563,-3912,-557,-6395,-2886,445,-6395,2920.1,171.23,183.45,-74,-1267,-7700,1104,-16,-1901,34.1350071,-118.1457440,0.98,223.70,1.46,17,1,3,0,1,1
3551573,-3912,-557,-6395,-2886,445,-6395,2920.1,171.23,183.45,-207,-1499,-7203,1171,-191,-1642,34.1350071,-118.1457440,0.98,223.70,1.46,17,1,3,0,1,1
3551583,-3912,-557,-6395,-2886,445,-6395,2920.1,171.23,183.45,-296,-1559,-6778,858,-327,-1222,34.1350071,-118.1457440,0.98,223.70,1.46,17,1,3,0,1,1
3551593,-3912,-557,-6395,-2886,445,-6395,2920.1,171.23,183.45,-396,-1477,-6441,334,-461,-609,34.1350071,-118.1457440,0.98,223.70,1.46,17,1,3,0,1,1
3551603,-3912,-557,-6395,-2886,445,-6395,2920.1,171.23,183.45,-596,-1181,-6268,-995,-222,525,34.1350071,-118.1457440,0.98,223.70,1.46,17,1,3,0,1,1
3551613,-3912,-557,-6395,-2886,445,-6395,2920.1,171.23,183.45,-673,-841,-6428,-1847,306,1174,34.1350071,-118.1457440,0.98,223.70,1.46,17,1,3,0,1,1
3551623,-3912,-557,-6395,-2886,445,-6395,2920.1,171.23,183.45,-650,-365,-6696,-2090,877,1708,34.1350071,-118.1457440,0.98,223.70,1.46,17,1,3,0,1,1
3551633,-3912,-557,-6395,-2886,445,-6395,2920.1,171.23,183.45,-566,133,-6963,-1902,1245,2094,34.1350071,-118.1457440,0.98,223.70,1.46,17,1,3,0,1,1
3551643,-3912,-557,-6395,-2886,445,-6395,2920.1,171.23,183.45,-488,607,-7237,-1832,1064,2255,34.1350071,-118.1457440,0.98,223.70,1.46,17,1,3,0,1,1
3551653,-3912,-557,-6395,-2886,445,-6395,2920.1,171.23,183.45,-472,805,-7259,-1853,754,1955,34.1350071,-118.1457440,0.98,223.70,1.46,17,1,3,0,1,1
3551663,-3825,-567,-6437,-2799,435,-6437,2832.6,171.17,183.38,-397,999,-7165,-1674,594,1421,34.1350057,-118.1457444,1.43,222.52,1.46,17,1,3,0,1,1
3551673,-3825,-567,-6437,-2799,435,-6437,2832.6,171.17,183.38,-284,1040,-7018,-1403,519,794,34.1350057,-118.1457444,1.43,222.52,1.46,17,1,3,0,1,1
3551683,-3825,-567,-6437,-2799,435,-6437,2832.6,171.17,183.38,-133,700,-6814,-1192,392,-224,34.1350057,-118.1457444,1.43,222.52,1.46,17,1,3,0,1,1
3551693,-3825,-567,-6437,-2799,435,-6437,2832.6,171.17,183.38,7,423,-6683,-1126,471,-821,34.1350057,-118.1457444,1.43,222.52,1.46,17,1,3,0,1,1
3551703,-3825,-567,-6437,-2799,435,-6437,2832.6,171.17,183.38,191,150,-6574,-1120,615,-1234,34.1350057,-118.1457444,1.43,222.52,1.46,17,1,3,0,1,1
3551713,-3825,-567,-6437,-2799,435,-6437,2832.6,171.17,183.38,350,-149,-6527,-1202,693,-1421,34.1350057,-118.1457444,1.43,222.52,1.46,17,1,3,0,1,1
3551723,-3825,-567,-6437,-2799,435,-6437,2832.6,171.17,183.38,466,-544,-6536,-1271,855,-1426,34.1350057,-118.1457444,1.43,222.52,1.46,17,1,3,0,1,1
3551733,-3825,-567,-6437,-2799,435,-6437,2832.6,171.17,183.38,496,-743,-6522,-955,1060,-1382,34.1350057,-118.1457444,1.43,222.52,1.46,17,1,3,0,1,1
3551743,-3825,-567,-6437,-2799,435,-6437,2832.6,171.17,183.38,504,-921,-6495,-503,1208,-1261,34.1350057,-118.1457444,1.43,222.52,1.46,17,1,3,0,1,1
3551753,-3825,-567,-6437,-2799,435,-6437,2832.6,171.17,183.38,493,-1073,-6466,-350,1178,-1025,34.1350057,-118.1457444,1.43,222.52,1.46,17,1,3,0,1,1
3551763,-3825,-567,-6437,-2799,435,-6437,2832.6,171.17,183.38,477,-1113,-6450,-684,1086,-720,34.1350052,-118.1457446,1.26,199.81,1.46,17,1,3,0,1,1
3551773,-3790,-490,-6492,-2764,512,-6492,2811.0,169.51,181.72,473,-1008,-6455,-736,1111,-582,34.1350052,-118.1457446,1.26,199.81,1.46,17,1,3,0,1,1
3551783,-3790,-490,-6492,-2764,512,-6492,2811.0,169.51,181.72,451,-980,-6513,-543,1216,-436,34.1350052,-118.1457446,1.26,199.81,1.46,17,1,3,0,1,1
3551793,-3790,-490,-6492,-2764,512,-6492,2811.0,169.51,181.72,430,-1094,-6628,-329,1281,-298,34.1350052,-118.1457446,1.26,199.81,1.46,17,1,3,0,1,1
3551803,-3790,-490,-6492,-2764,512,-6492,2811.0,169.51,181.72,383,-1219,-6691,-31,968,78,34.1350052,-118.1457446,1.26,199.81,1.46,17,1,3,0,1,1
3551813,-3790,-490,-6492,-2764,512,-6492,2811.0,169.51,181.72,313,-1126,-6559,123,569,362,34.1350052,-118.1457446,1.26,199.81,1.46,17,1,3,0,1,1
3551823,-3790,-490,-6492,-2764,512,-6492,2811.0,169.51,181.72,195,-971,-6373,178,300,448,34.1350052,-118.1457446,1.26,199.81,1.46,17,1,3,0,1,1
3551833,-3790,-490,-6492,-2764,512,-6492,2811.0,169.51,181.72,53,-909,-6243,149,304,364,34.1350052,-118.1457446,1.26,199.81,1.46,17,1,3,0,1,1
3551843,-3790,-490,-6492,-2764,512,-6492,2811.0,169.51,181.72,-43,-1039,-6274,26,539,321,34.1350052,-118.1457446,1.26,199.81,1.46,17,1,3,0,1,1
3551853,-3790,-490,-6492,-2764,512,-6492,2811.0,169.51,181.72,44,-1128,-6390,-207,580,450,34.1350052,-118.1457446,1.26,199.81,1.46,17,1,3,0,1,1
3551863,-3757,-452,-6515,-2731,550,-6515,2785.8,168.61,180.83,166,-1150,-6532,-501,326,771,34.1350052,-118.1457446,1.26,199.81,1.46,17,1,3,0,1,1
3551873,-3757,-452,-6515,-2731,550,-6515,2785.8,168.61,180.83,199,-1108,-6683,-768,-44,1204,34.1350052,-118.1457446,1.26,199.81,1.46,17,1,3,0,1,1
3551883,-3757,-452,-6515,-2731,550,-6515,2785.8,168.61,180.83,90,-938,-6884,-852,-211,1328,34.1350052,-118.1457446,1.26,199.81,1.46,17,1,3,0,1,1
3551893,-3757,-452,-6515,-2731,550,-6515,2785.8,168.61,180.83,47,-777,-7011,-582,-71,1409,34.1350052,-118.1457446,1.26,199.81,1.46,17,1,3,0,1,1
3551903,-3757,-452,-6515,-2731,550,-6515,2785.8,168.61,180.83,96,-695,-7138,-364,118,1438,34.1350052,-118.1457446,1.26,199.81,1.46,17,1,3,0,1,1
3551913,-3757,-452,-6515,-2731,550,-6515,2785.8,168.61,180.83,189,-716,-7282,-335,179,1434,34.1350052,-118.1457446,1.26,199.81,1.46,17,1,3,0,1,1
3551923,-3757,-452,-6515,-2731,550,-6515,2785.8,168.61,180.83,269,-774,-7561,-513,136,1571,34.1350052,-118.1457446,1.26,199.81,1.46,17,1,3,0,1,1
3551933,-3757,-452,-6515,-2731,550,-6515,2785.8,168.61,180.83,277,-757,-7757,-624,137,1760,34.1350052,-118.1457446,1.26,199.81,1.46,17,1,3,0,1,1
3551943,-3757,-452,-6515,-2731,550,-6515,2785.8,168.61,180.83,280,-675,-7947,-578,184,1946,34.1350052,-118.1457446,1.26,199.81,1.46,17,1,3,0,1,1
3551953,-3757,-452,-6515,-2731,550,-6515,2785.8,168.61,180.83,258,-574,-8149,-512,261,2210,34.1350052,-118.1457446,1.26,199.81,1.46,17,1,3,0,1,1
3551963,-3815,-500,-6432,-2789,502,-6432,2833.8,169.80,182.01,171,-458,-8483,-453,335,2282,34.1350035,-118.1457449,1.73,193.40,1.46,17,1,3,0,1,1
3551973,-3815,-500,-6432,-2789,502,-6432,2833.8,169.80,182.01,94,-408,-8695,-225,352,2206,34.1350035,-118.1457449,1.73,193.40,1.46,17,1,3,0,1,1
3551983,-3815,-500,-6432,-2789,502,-6432,2833.8,169.80,182.01,33,-382,-8854,118,326,2001,34.1350035,-118.1457449,1.73,193.40,1.46,17,1,3,0,1,1
3551993,-3815,-500,-6432,-2789,502,-6432,2833.8,169.80,182.01,13,-442,-8958,536,403,1291,34.1350035,-118.1457449,1.73,193.40,1.46,17,1,3,0,1,1
3552003,-3815,-500,-6432,-2789,502,-6432,2833.8,169.80,182.01,79,-871,-9024,806,396,723,34.1350035,-118.1457449,1.73,193.40,1.46,17,1,3,0,1,1
3552013,-3815,-500,-6432,-2789,502,-6432,2833.8,169.80,182.01,201,-1290,-8946,841,171,499,34.1350035,-118.1457449,1.73,193.40,1.46,17,1,3,0,1,1
3552023,-3815,-500,-6432,-2789,502,-6432,2833.8,169.80,182.01,325,-1516,-8751,351,-241,779,34.1350035,-118.1457449,1.73,193.40,1.46,17,1,3,0,1,1
3552033,-3815,-500,-6432,-2789,502,-6432,2833.8,169.80,182.01,295,-1355,-8444,-826,-509,1344,34.1350035,-118.1457449,1.73,193.40,1.46,17,1,3,0,1,1
3552043,-3815,-500,-6432,-2789,502,-6432,2833.8,169.80,182.01,155,-1230,-8378,-1214,-27,1383,34.1350035,-118.1457449,1.73,193.40,1.46,17,1,3,0,1,1
3552053,-3815,-500,-6432,-2789,502,-6432,2833.8,169.80,182.01,86,-1207,-8430,-1252,696,1350,34.1350035,-118.1457449,1.73,193.40,1.46,17,1,3,0,1,1
3552063,-3752,-452,-6470,-2726,550,-6470,2780.9,168.59,180.81,184,-1129,-8566,-1448,1242,1421,34.1350031,-118.1457450,1.63,192.30,1.46,17,1,3,0,1,1
3552073,-3752,-452,-6470,-2726,550,-6470,2780.9,168.59,180.81,510,-687,-8875,-2235,1577,1386,34.1350031,-118.1457450,1.63,192.30,1.46,17,1,3,0,1,1
3552083,-3752,-452,-6470,-2726,550,-6470,2780.9,168.59,180.81,646,-440,-9149,-2432,1628,1105,34.1350031,-118.1457450,1.63,192.30,1.46,17,1,3,0,1,1
3552093,-3752,-452,-6470,-2726,550,-6470,2780.9,168.59,180.81,731,-353,-9370,-1955,1616,881,34.1350031,-118.1457450,1.63,192.30,1.46,17,1,3,0,1,1
3552103,-3752,-452,-6470,-2726,550,-6470,2780.9,168.59,180.81,842,-301,-9429,-950,1507,909,34.1350031,-118.1457450,1.63,192.30,1.46,17,1,3,0,1,1
3552113,-3752,-452,-6470,-2726,550,-6470,2780.9,168.59,180.81,1068,-132,-9229,442,1122,1252,34.1350031,-118.1457450,1.63,192.30,1.46,17,1,3,0,1,1
3552123,-3752,-452,-6470,-2726,550,-6470,2780.9,168.59,180.81,1138,-55,-9022,846,725,1561,34.1350031,-118.1457450,1.63,192.30,1.46,17,1,3,0,1,1
3552133,-3752,-452,-6470,-2726,550,-6470,2780.9,168.59,180.81,1102,-19,-8826,945,213,1936,34.1350031,-118.1457450,1.63,192.30,1.46,17,1,3,0,1,1
3552143,-3752,-452,-6470,-2726,550,-6470,2780.9,168.59,180.81,997,103,-8612,1043,-290,2367,34.1350031,-118.1457450,1.63,192.30,1.46,17,1,3,0,1,1
3552153,-3752,-452,-6470,-2726,550,-6470,2780.9,168.59,180.81,806,498,-8213,1420,-740,2941,34.1350031,-118.1457450,1.63,192.30,1.46,17,1,3,0,1,1
3552163,-3885,-572,-6465,-2859,430,-6465,2891.2,171.45,183.66,645,726,-7899,1598,-1077,3086,34.1350025,-118.1457448,1.70,189.83,1.46,17,1,3,0,1,1
3552173,-3885,-572,-6465,-2859,430,-6465,2891.2,171.45,183.66,443,825,-7571,1585,-1464,3054,34.1350025,-118.1457448,1.70,189.83,1.46,17,1,3,0,1,1
3552183,-3885,-572,-6465,-2859,430,-6465,2891.2,171.45,183.66,228,768,-7228,1403,-1838,2889,34.1350025,-118.1457448,1.70,189.83,1.46,17,1,3,0,1,1
3552193,-3885,-572,-6465,-2859,430,-6465,2891.2,171.45,183.66,-108,395,-6727,764,-2430,2375,34.1350025,-118.1457448,1.70,189.83,1.46,17,1,3,0,1,1
3552203,-3885,-572,-6465,-2859,430,-6465,2891.2,171.45,183.66,-349,119,-6433,162,-2860,2029,34.1350025,-118.1457448,1.70,189.83,1.46,17,1,3,0,1,1
3552213,-3885,-572,-6465,-2859,430,-6465,2891.2,171.45,183.66,-557,-93,-6166,-591,-3223,1645,34.1350025,-118.1457448,1.70,189.83,1.46,17,1,3,0,1,1
3552223,-3885,-572,-6465,-2859,430,-6465,2891.2,171.45,183.66,-691,-300,-5969,-1411,-3361,1095,34.1350025,-118.1457448,1.70,189.83,1.46,17,1,3,0,1,1
3552233,-3885,-572,-6465,-2859,430,-6465,2891.2,171.45,183.66,-759,-740,-5854,-2108,-2755,322,34.1350025,-118.1457448,1.70,189.83,1.46,17,1,3,0,1,1
3552243,-3885,-572,-6465,-2859,430,-6465,2891.2,171.45,183.66,-712,-1040,-5892,-2159,-1917,133,34.1350025,-118.1457448,1.70,189.83,1.46,17,1,3,0,1,1
3552253,-3885,-572,-6465,-2859,430,-6465,2891.2,171.45,183.66,-593,-1244,-6052,-2305,-1016,191,34.1350025,-118.1457448,1.70,189.83,1.46,17,1,3,0,1,1
3552263,-3772,-760,-6502,-2746,242,-6502,2756.6,174.96,187.18,-425,-1255,-6323,-2741,-334,328,34.1350017,-118.1457445,1.92,191.80,1.46,18,1,3,0,1,1
3552273,-3772,-760,-6502,-2746,242,-6502,2756.6,174.96,187.18,-162,-914,-6851,-3055,174,430,34.1350017,-118.1457445,1.92,191.80,1.46,18,1,3,0,1,1
3552283,-3772,-760,-6502,-2746,242,-6502,2756.6,174.96,187.18,10,-666,-7197,-2672,420,385,34.1350017,-118.1457445,1.92,191.80,1.46,18,1,3,0,1,1
3552293,-3772,-760,-6502,-2746,242,-6502,2756.6,174.96,187.18,180,-477,-7441,-2002,467,259,34.1350017,-118.1457445,1.92,191.80,1.46,18,1,3,0,1,1
3552303,-3772,-760,-6502,-2746,242,-6502,2756.6,174.96,187.18,365,-310,-7539,-1068,368,31,34.1350017,-118.1457445,1.92,191.80,1.46,18,1,3,0,1,1
3552313,-3772,-760,-6502,-2746,242,-6502,2756.6,174.96,187.18,657,-203,-7392,453,-182,-341,34.1350017,-118.1457445,1.92,191.80,1.46,18,1,3,0,1,1
3552323,-3772,-760,-6502,-2746,242,-6502,2756.6,174.96,187.18,747,-316,-7152,1011,-813,-600,34.1350017,-118.1457445,1.92,191.80,1.46,18,1,3,0,1,1
3552333,-3772,-760,-6502,-2746,242,-6502,2756.6,174.96,187.18,738,-501,-6845,1203,-1465,-834,34.1350017,-118.1457445,1.92,191.80,1.46,18,1,3,0,1,1
3552343,-3772,-760,-6502,-2746,242,-6502,2756.6,174.96,187.18,698,-607,-6515,1274,-1893,-874,34.1350017,-118.1457445,1.92,191.80,1.46,18,1,3,0,1,1
3552353,-3772,-760,-6502,-2746,242,-6502,2756.6,174.96,187.18,649,-696,-6113,1174,-2018,-759,34.1350017,-118.1457445,1.92,191.80,1.46,18,1,3,0,1,1
3552363,-3772,-827,-6437,-2746,175,-6437,2751.6,176.35,188.57,644,-814,-5939,1073,-1963,-700,34.1350014,-118.1457444,1.69,191.53,1.37,19,1,3,0,1,1
3552373,-3772,-827,-6437,-2746,175,-6437,2751.6,176.35,188.57,632,-932,-5830,960,-1907,-544,34.1350014,-118.1457444,1.69,191.53,1.37,19,1,3,0,1,1
3552383,-3772,-827,-6437,-2746,175,-6437,2751.6,176.35,188.57,571,-1013,-5718,877,-1893,-329,34.1350014,-118.1457444,1.69,191.53,1.37,19,1,3,0,1,1
3552393,-3772,-827,-6437,-2746,175,-6437,2751.6,176.35,188.57,364,-1022,-5547,865,-1788,-14,34.1350014,-118.1457444,1.69,191.53,1.37,19,1,3,0,1,1
3552403,-3772,-827,-6437,-2746,175,-6437,2751.6,176.35,188.57,199,-1016,-5524,687,-1516,118,34.1350014,-118.1457444,1.69,191.53,1.37,19,1,3,0,1,1
3552413,-3772,-827,-6437,-2746,175,-6437,2751.6,176.35,188.57,61,-991,-5595,355,-1122,93,34.1350014,-118.1457444,1.69,191.53,1.37,19,1,3,0,1,1
3552423,-3772,-827,-6437,-2746,175,-6437,2751.6,176.35,188.57,-12,-918,-5756,37,-719,-85,34.1350014,-118.1457444,1.69,191.53,1.37,19,1,3,0,1,1
3552433,-3772,-827,-6437,-2746,175,-6437,2751.6,176.35,188.57,-13,-821,-6151,-277,-189,-406,34.1350014,-118.1457444,1.69,191.53,1.37,19,1,3,0,1,1
3552443,-3772,-827,-6437,-2746,175,-6437,2751.6,176.35,188.57,-8,-781,-6455,-377,15,-696,34.1350014,-118.1457444,1.69,191.53,1.37,19,1,3,0,1,1
3552453,-3772,-827,-6437,-2746,175,-6437,2751.6,176.35,188.57,-16,-769,-6749,-229,115,-1022,34.1350014,-118.1457444,1.69,191.53,1.37,19,1,3,0,1,1
3552463,-3862,-770,-6432,-2836,232,-6432,2845.5,175.32,187.54,19,-803,-7028,58,208,-1299,34.1350010,-118.1457443,1.40,188.24,1.37,19,1,3,0,1,1
3552473,-3862,-770,-6432,-2836,232,-6432,2845.5,175.32,187.54,189,-876,-7424,22,124,-1595,34.1350010,-118.1457443,1.40,188.24,1.37,19,1,3,0,1,1
3552483,-3862,-770,-6432,-2836,232,-6432,2845.5,175.32,187.54,311,-906,-7678,-288,-34,-1693,34.1350010,-118.1457443,1.40,188.24,1.37,19,1,3,0,1,1
3552493,-3862,-770,-6432,-2836,232,-6432,2845.5,175.32,187.54,385,-927,-7922,-392,-97,-1705,34.1350010,-118.1457443,1.40,188.24,1.37,19,1,3,0,1,1
3552503,-3862,-770,-6432,-2836,232,-6432,2845.5,175.32,187.54,397,-933,-8161,-162,-13,-1625,34.1350010,-118.1457443,1.40,188.24,1.37,19,1,3,0,1,1
3552513,-3862,-770,-6432,-2836,232,-6432,2845.5,175.32,187.54,386,-952,-8542,111,308,-1316,34.1350010,-118.1457443,1.40,188.24,1.37,19,1,3,0,1,1
3552523,-3862,-770,-6432,-2836,232,-6432,2845.5,175.32,187.54,380,-924,-8835,-86,362,-1063,34.1350010,-118.1457443,1.40,188.24,1.37,19,1,3,0,1,1
3552533,-3862,-770,-6432,-2836,232,-6432,2845.5,175.32,187.54,310,-795,-9171,-393,200,-849,34.1350010,-118.1457443,1.40,188.24,1.37,19,1,3,0,1,1
3552543,-3862,-770,-6432,-2836,232,-6432,2845.5,175.32,187.54,143,-642,-9510,-440,-190,-826,34.1350010,-118.1457443,1.40,188.24,1.37,19,1,3,0,1,1
3552553,-3862,-770,-6432,-2836,232,-6432,2845.5,175.32,187.54,-154,-599,-9868,172,-502,-1275,34.1350010,-118.1457443,1.40,188.24,1.37,19,1,3,0,1,1
3552563,-3852,-707,-6427,-2826,295,-6427,2841.4,174.04,186.26,-105,-644,-9900,648,-772,-1990,34.1350007,-118.1457440,1.40,175.07,1.37,18,1,3,0,1,1
3552573,-3852,-707,-6427,-2826,295,-6427,2841.4,174.04,186.26,201,-694,-9750,716,-1074,-2655,34.1350007,-118.1457440,1.40,175.07,1.37,18,1,3,0,1,1
3552583,-3852,-707,-6427,-2826,295,-6427,2841.4,174.04,186.26,474,-856,-9381,346,-1594,-3033,34.1350007,-118.1457440,1.40,175.07,1.37,18,1,3,0,1,1
3552593,-3852,-707,-6427,-2826,295,-6427,2841.4,174.04,186.26,397,-1388,-9228,128,-1440,-2717,34.1350007,-118.1457440,1.40,175.07,1.37,18,1,3,0,1,1
3552603,-3852,-707,-6427,-2826,295,-6427,2841.4,174.04,186.26,231,-1650,-9225,-179,-607,-2044,34.1350007,-118.1457440,1.40,175.07,1.37,18,1,3,0,1,1
3552613,-3852,-707,-6427,-2826,295,-6427,2841.4,174.04,186.26,191,-1540,-9383,-657,615,-1172,34.1350007,-118.1457440,1.40,175.07,1.37,18,1,3,0,1,1
3552623,-3852,-707,-6427,-2826,295,-6427,2841.4,174.04,186.26,289,-1043,-9692,-1187,2221,-81,34.1350007,-118.1457440,1.40,175.07,1.37,18,1,3,0,1,1
3552633,-3852,-707,-6427,-2826,295,-6427,2841.4,174.04,186.26,491,-117,-10341,-1180,2670,225,34.1350007,-118.1457440,1.40,175.07,1.37,18,1,3,0,1,1
3552643,-3852,-707,-6427,-2826,295,-6427,2841.4,174.04,186.26,547,294,-10719,-894,2665,225,34.1350007,-118.1457440,1.40,175.07,1.37,18,1,3,0,1,1
3552653,-3852,-707,-6427,-2826,295,-6427,2841.4,174.04,186.26,560,526,-10931,-251,2546,29,34.1350007,-118.1457440,1.40,175.07,1.37,18,1,3,0,1,1
3552663,-3795,-635,-6385,-2769,367,-6385,2793.2,172.45,184.67,613,675,-10898,855,1842,-492,34.1350001,-118.1457437,1.66,174.07,1.37,18,1,3,0,1,1
3552673,-3795,-635,-6385,-2769,367,-6385,2793.2,172.45,184.67,751,659,-10189,2836,725,-979,34.1350001,-118.1457437,1.66,174.07,1.37,18,1,3,0,1,1
3552683,-3795,-635,-6385,-2769,367,-6385,2793.2,172.45,184.67,651,274,-9334,3508,-479,-1375,34.1350001,-118.1457437,1.66,174.07,1.37,18,1,3,0,1,1
3552693,-3795,-635,-6385,-2769,367,-6385,2793.2,172.45,184.67,375,-285,-8436,3395,-1267,-1317,34.1350001,-118.1457437,1.66,174.07,1.37,18,1,3,0,1,1
3552703,-3795,-635,-6385,-2769,367,-6385,2793.2,172.45,184.67,51,-718,-7416,2508,-1413,-451,34.1350001,-118.1457437,1.66,174.07,1.37,18,1,3,0,1,1
3552713,-3795,-635,-6385,-2769,367,-6385,2793.2,172.45,184.67,-367,-1000,-6874,1687,-1090,323,34.1350001,-118.1457437,1.66,174.07,1.37,18,1,3,0,1,1
3552723,-3795,-635,-6385,-2769,367,-6385,2793.2,172.45,184.67,-638,-1003,-6659,514,-547,1076,34.1350001,-118.1457437,1.66,174.07,1.37,18,1,3,0,1,1
3552733,-3795,-635,-6385,-2769,367,-6385,2793.2,172.45,184.67,-885,-823,-6676,-772,172,1765,34.1350001,-118.1457437,1.66,174.07,1.37,18,1,3,0,1,1
3552743,-3795,-635,-6385,-2769,367,-6385,2793.2,172.45,184.67,-975,-143,-6951,-1965,1143,2559,34.1350001,-118.1457437,1.66,174.07,1.37,18,1,3,0,1,1
3552753,-3795,-635,-6385,-2769,367,-6385,2793.2,172.45,184.67,-860,446,-7191,-2155,1373,2587,34.1350001,-118.1457437,1.66,174.07,1.37,18,1,3,0,1,1
3552763,-3852,-645,-6427,-2826,357,-6427,2848.5,172.80,185.02,-750,895,-7344,-2007,1205,2312,34.1349994,-118.1457434,1.69,176.69,1.37,18,1,3,0,1,1
3552773,-3852,-645,-6427,-2826,357,-6427,2848.5,172.80,185.02,-702,1122,-7335,-1631,806,1905,34.1349994,-118.1457434,1.69,176.69,1.37,18,1,3,0,1,1
3552783,-3852,-645,-6427,-2826,357,-6427,2848.5,172.80,185.02,-667,1183,-7097,-1048,304,1011,34.1349994,-118.1457434,1.69,176.69,1.37,18,1,3,0,1,1
3552793,-3852,-645,-6427,-2826,357,-6427,2848.5,172.80,185.02,-612,1110,-6824,-802,14,282,34.1349994,-118.1457434,1.69,176.69,1.37,18,1,3,0,1,1
3552803,-3852,-645,-6427,-2826,357,-6427,2848.5,172.80,185.02,-523,965,-6474,-524,-133,-467,34.1349994,-118.1457434,1.69,176.69,1.37,18,1,3,0,1,1
3552813,-3852,-645,-6427,-2826,357,-6427,2848.5,172.80,185.02,-379,709,-6086,-158,-41,-1123,34.1349994,-118.1457434,1.69,176.69,1.37,18,1,3,0,1,1
3552823,-3852,-645,-6427,-2826,357,-6427,2848.5,172.80,185.02,-94,187,-5576,187,349,-1761,34.1349994,-118.1457434,1.69,176.69,1.37,18,1,3,0,1,1
3552833,-3852,-645,-6427,-2826,357,-6427,2848.5,172.80,185.02,103,-119,-5336,173,699,-1974,34.1349994,-118.1457434,1.69,176.69,1.37,18,1,3,0,1,1
3552843,-3852,-645,-6427,-2826,357,-6427,2848.5,172.80,185.02,309,-330,-5191,85,1105,-2044,34.1349994,-118.1457434,1.69,176.69,1.37,18,1,3,0,1,1
3552853,-3852,-645,-6427,-2826,357,-6427,2848.5,172.80,185.02,498,-490,-5135,91,1549,-2058,34.1349994,-118.1457434,1.69,176.69,1.37,18,1,3,0,1,1
3552863,-3890,-572,-6422,-2864,430,-6422,2896.1,171.46,183.68,710,-743,-5157,275,2035,-1864,34.1349987,-118.1457433,2.15,191.60,1.37,18,1,3,0,1,1
3552873,-3890,-572,-6422,-2864,430,-6422,2896.1,171.46,183.68,824,-838,-5217,438,2208,-1553,34.1349987,-118.1457433,2.15,191.60,1.37,18,1,3,0,1,1
3552883,-3890,-572,-6422,-2864,430,-6422,2896.1,171.46,183.68,915,-842,-5282,514,2204,-1286,34.1349987,-118.1457433,2.15,191.60,1.37,18,1,3,0,1,1
3552893,-3890,-572,-6422,-2864,430,-6422,2896.1,171.46,183.68,983,-816,-5312,475,2024,-1124,34.1349987,-118.1457433,2.15,191.60,1.37,18,1,3,0,1,1
3552903,-3890,-572,-6422,-2864,430,-6422,2896.1,171.46,183.68,1004,-816,-5311,560,1604,-855,34.1349987,-118.1457433,2.15,191.60,1.37,18,1,3,0,1,1
3552913,-3890,-572,-6422,-2864,430,-6422,2896.1,171.46,183.68,967,-863,-5329,578,1369,-535,34.1349987,-118.1457433,2.15,191.60,1.37,18,1,3,0,1,1
3552923,-3890,-572,-6422,-2864,430,-6422,2896.1,171.46,183.68,911,-941,-5399,338,1214,-184,34.1349987,-118.1457433,2.15,191.60,1.37,18,1,3,0,1,1
3552933,-3890,-572,-6422,-2864,430,-6422,2896.1,171.46,183.68,838,-1023,-5514,150,1063,175,34.1349987,-118.1457433,2.15,191.60,1.37,18,1,3,0,1,1
3552943,-3890,-572,-6422,-2864,430,-6422,2896.1,171.46,183.68,673,-1087,-5676,518,791,772,34.1349987,-118.1457433,2.15,191.60,1.37,18,1,3,0,1,1
3552953,-3890,-572,-6422,-2864,430,-6422,2896.1,171.46,183.68,489,-1079,-5738,756,601,1158,34.1349987,-118.1457433,2.15,191.60,1.37,18,1,3,0,1,1
3552963,-3847,-462,-6377,-2821,540,-6377,2872.2,169.16,181.38,271,-1035,-5784,717,456,1384,34.1349981,-118.1457428,1.83,186.62,1.37,18,1,3,0,1,1
3552973,-3847,-462,-6377,-2821,540,-6377,2872.2,169.16,181.38,77,-975,-5852,508,342,1378,34.1349981,-118.1457428,1.83,186.62,1.37,18,1,3,0,1,1
3552983,-3847,-462,-6377,-2821,540,-6377,2872.2,169.16,181.38,-93,-880,-6062,196,261,1303,34.1349981,-118.1457428,1.83,186.62,1.37,18,1,3,0,1,1
3552993,-3847,-462,-6377,-2821,540,-6377,2872.2,169.16,181.38,-133,-860,-6299,-38,243,1334,34.1349981,-118.1457428,1.83,186.62,1.37,18,1,3,0,1,1
3553003,-3847,-462,-6377,-2821,540,-6377,2872.2,169.16,181.38,-151,-856,-6623,-358,203,1431,34.1349981,-118.1457428,1.83,186.62,1.37,18,1,3,0,1,1
3553013,-3847,-462,-6377,-2821,540,-6377,2872.2,169.16,181.38,-125,-823,-7014,-739,173,1607,34.1349981,-118.1457428,1.83,186.62,1.37,18,1,3,0,1,1
3553023,-3847,-462,-6377,-2821,540,-6377,2872.2,169.16,181.38,-80,-693,-7682,-1484,-33,1949,34.1349981,-118.1457428,1.83,186.62,1.37,18,1,3,0,1,1
3553033,-3847,-462,-6377,-2821,540,-6377,2872.2,169.16,181.38,-174,-531,-8120,-1818,-345,2097,34.1349981,-118.1457428,1.83,186.62,1.37,18,1,3,0,1,1
3553043,-3847,-462,-6377,-2821,540,-6377,2872.2,169.16,181.38,-330,-359,-8513,-1865,-544,2102,34.1349981,-118.1457428,1.83,186.62,1.37,18,1,3,0,1,1
3553053,-3847,-462,-6377,-2821,540,-6377,2872.2,169.16,181.38,-453,-260,-8882,-1790,-533,1890,34.1349981,-118.1457428,1.83,186.62,1.37,18,1,3,0,1,1
3553063,-3832,-540,-6405,-2806,462,-6405,2843.8,170.65,182.87,-551,-381,-9319,-1477,-520,1153,34.1349977,-118.1457425,1.50,183.12,1.37,18,1,3,0,1,1
3553073,-3832,-540,-6405,-2806,462,-6405,2843.8,170.65,182.87,-560,-708,-9438,-1042,-528,564,34.1349977,-118.1457425,1.50,183.12,1.37,18,1,3,0,1,1
3553083,-3832,-540,-6405,-2806,462,-6405,2843.8,170.65,182.87,-503,-1138,-9430,-865,-593,250,34.1349977,-118.1457425,1.50,183.12,1.37,18,1,3,0,1,1
3553093,-3832,-540,-6405,-2806,462,-6405,2843.8,170.65,182.87,-438,-1411,-9340,-1430,-710,383,34.1349977,-118.1457425,1.50,183.12,1.37,18,1,3,0,1,1
3553103,-3832,-540,-6405,-2806,462,-6405,2843.8,170.65,182.87,-450,-1263,-9253,-3047,-464,712,34.1349977,-118.1457425,1.50,183.12,1.37,18,1,3,0,1,1
3553113,-3832,-540,-6405,-2806,462,-6405,2843.8,170.65,182.87,-488,-981,-9347,-3714,244,758,34.1349977,-118.1457425,1.50,183.12,1.37,18,1,3,0,1,1
3553123,-3832,-540,-6405,-2806,462,-6405,2843.8,170.65,182.87,-404,-669,-9613,-4027,1211,686,34.1349977,-118.1457425,1.50,183.12,1.37,18,1,3,0,1,1
3553133,-3832,-540,-6405,-2806,462,-6405,2843.8,170.65,182.87,-120,-323,-10074,-4398,2039,392,34.1349977,-118.1457425,1.50,183.12,1.37,18,1,3,0,1,1
3553143,-3832,-540,-6405,-2806,462,-6405,2843.8,170.65,182.87,509,13,-10888,-4828,2454,-403,34.1349977,-118.1457425,1.50,183.12,1.37,18,1,3,0,1,1
3553153,-3832,-540,-6405,-2806,462,-6405,2843.8,170.65,182.87,929,51,-11304,-4275,2350,-830,34.1349977,-118.1457425,1.50,183.12,1.37,18,1,3,0,1,1
3553163,-3707,-472,-6465,-2681,530,-6465,2732.9,168.82,181.03,1321,72,-11522,-2890,2032,-882,34.1349974,-118.1457420,1.02,171.00,1.37,18,1,3,0,1,1
3553173,-3707,-472,-6465,-2681,530,-6465,2732.9,168.82,181.03,1623,114,-11474,-1152,1370,-549,34.1349974,-118.1457420,1.02,171.00,1.37,18,1,3,0,1,1
3553183,-3707,-472,-6465,-2681,530,-6465,2732.9,168.82,181.03,1755,171,-10902,993,266,196,34.1349974,-118.1457420,1.02,171.00,1.37,18,1,3,0,1,1
3553193,-3707,-472,-6465,-2681,530,-6465,2732.9,168.82,181.03,1677,215,-10355,1870,-46,802,34.1349974,-118.1457420,1.02,171.00,1.37,18,1,3,0,1,1
3553203,-3707,-472,-6465,-2681,530,-6465,2732.9,168.82,181.03,1560,333,-9858,2354,-58,1533,34.1349974,-118.1457420,1.02,171.00,1.37,18,1,3,0,1,1
3553213,-3707,-472,-6465,-2681,530,-6465,2732.9,168.82,181.03,1478,581,-9435,2592,-19,2212,34.1349974,-118.1457420,1.02,171.00,1.37,18,1,3,0,1,1
3553223,-3707,-472,-6465,-2681,530,-6465,2732.9,168.82,181.03,1317,1047,-8807,2943,-232,2740,34.1349974,-118.1457420,1.02,171.00,1.37,18,1,3,0,1,1
3553233,-3707,-472,-6465,-2681,530,-6465,2732.9,168.82,181.03,1116,1223,-8309,3327,-575,2703,34.1349974,-118.1457420,1.02,171.00,1.37,18,1,3,0,1,1
3553243,-3707,-472,-6465,-2681,530,-6465,2732.9,168.82,181.03,911,1229,-7704,3582,-1031,2351,34.1349974,-118.1457420,1.02,171.00,1.37,18,1,3,0,1,1
3553253,-3707,-472,-6465,-2681,530,-6465,2732.9,168.82,181.03,748,1088,-7046,3532,-1478,1643,34.1349974,-118.1457420,1.02,171.00,1.37,18,1,3,0,1,1
3553263,-3842,-620,-6347,-2816,382,-6347,2841.8,172.27,184.49,569,571,-6126,3057,-1921,293,34.1349967,-118.1457414,0.84,149.35,1.37,18,1,3,0,1,1
3553273,-3842,-620,-6347,-2816,382,-6347,2841.8,172.27,184.49,483,59,-5611,2584,-2093,-495,34.1349967,-118.1457414,0.84,149.35,1.37,18,1,3,0,1,1
3553283,-3842,-620,-6347,-2816,382,-6347,2841.8,172.27,184.49,470,-547,-5233,1970,-2245,-1085,34.1349967,-118.1457414,0.84,149.35,1.37,18,1,3,0,1,1
3553293,-3842,-620,-6347,-2816,382,-6347,2841.8,172.27,184.49,505,-1185,-4980,1122,-2405,-1322,34.1349967,-118.1457414,0.84,149.35,1.37,18,1,3,0,1,1
3553303,-3842,-620,-6347,-2816,382,-6347,2841.8,172.27,184.49,484,-1948,-4746,-336,-2658,-976,34.1349967,-118.1457414,0.84,149.35,1.37,18,1,3,0,1,1
3553313,-3842,-620,-6347,-2816,382,-6347,2841.8,172.27,184.49,418,-2231,-4724,-1124,-2603,-326,34.1349967,-118.1457414,0.84,149.35,1.37,18,1,3,0,1,1
3553323,-3842,-620,-6347,-2816,382,-6347,2841.8,172.27,184.49,349,-2315,-4846,-1662,-2154,534,34.1349967,-118.1457414,0.84,149.35,1.37,18,1,3,0,1,1
3553333,-3842,-620,-6347,-2816,382,-6347,2841.8,172.27,184.49,311,-2207,-5105,-1874,-888,1934,34.1349967,-118.1457414,0.84,149.35,1.37,18,1,3,0,1,1
3553343,-3842,-620,-6347,-2816,382,-6347,2841.8,172.27,184.49,320,-1776,-5670,-1616,-189,2700,34.1349967,-118.1457414,0.84,149.35,1.37,18,1,3,0,1,1
3553353,-3842,-620,-6347,-2816,382,-6347,2841.8,172.27,184.49,326,-1429,-6082,-1545,61,3184,34.1349967,-118.1457414,0.84,149.35,1.37,18,1,3,0,1,1
3553363,-3852,-707,-6377,-2826,295,-6377,2841.4,174.04,186.26,286,-1093,-6452,-1624,-105,3447,34.1349959,-118.1457409,1.31,149.97,1.40,18,1,3,0,1,1
3553373,-3852,-707,-6377,-2826,295,-6377,2841.4,174.04,186.26,214,-736,-6720,-1124,-638,3456,34.1349959,-118.1457409,1.31,149.97,1.40,18,1,3,0,1,1
3553383,-3852,-707,-6377,-2826,295,-6377,2841.4,174.04,186.26,192,-217,-6870,-213,-1118,3127,34.1349959,-118.1457409,1.31,149.97,1.40,18,1,3,0,1,1
3553393,-3852,-707,-6377,-2826,295,-6377,2841.4,174.04,186.26,232,-46,-6800,534,-1727,2582,34.1349959,-118.1457409,1.31,149.97,1.40,18,1,3,0,1,1
3553403,-3852,-707,-6377,-2826,295,-6377,2841.4,174.04,186.26,222,-76,-6661,902,-2370,2020,34.1349959,-118.1457409,1.31,149.97,1.40,18,1,3,0,1,1
3553413,-3852,-707,-6377,-2826,295,-6377,2841.4,174.04,186.26,123,-492,-6445,635,-3139,1506,34.1349959,-118.1457409,1.31,149.97,1.40,18,1,3,0,1,1
3553423,-3852,-707,-6377,-2826,295,-6377,2841.4,174.04,186.26,-89,-415,-6283,437,-3311,1278,34.1349959,-118.1457409,1.31,149.97,1.40,18,1,3,0,1,1
3553433,-3852,-707,-6377,-2826,295,-6377,2841.4,174.04,186.26,-210,-425,-6109,580,-3128,1034,34.1349959,-118.1457409,1.31,149.97,1.40,18,1,3,0,1,1
3553443,-3852,-707,-6377,-2826,295,-6377,2841.4,174.04,186.26,-284,-482,-5958,879,-2651,769,34.1349959,-118.1457409,1.31,149.97,1.40,18,1,3,0,1,1
3553453,-3852,-707,-6377,-2826,295,-6377,2841.4,174.04,186.26,-320,-730,-5846,1052,-1744,187,34.1349959,-118.1457409,1.31,149.97,1.40,18,1,3,0,1,1
3553463,-3857,-847,-6345,-2831,155,-6345,2835.2,176.87,189.08,-365,-877,-5853,985,-1236,-132,34.1349953,-118.1457407,1.11,164.68,1.40,18,1,3,0,1,1
3553473,-3857,-847,-6345,-2831,155,-6345,2835.2,176.87,189.08,-391,-976,-5906,924,-808,-409,34.1349953,-118.1457407,1.11,164.68,1.40,18,1,3,0,1,1
3553483,-3857,-847,-6345,-2831,155,-6345,2835.2,176.87,189.08,-400,-1057,-5965,999,-374,-814,34.1349953,-118.1457407,1.11,164.68,1.40,18,1,3,0,1,1
3553493,-3857,-847,-6345,-2831,155,-6345,2835.2,176.87,189.08,-415,-1199,-6093,1378,450,-1453,34.1349953,-118.1457407,1.11,164.68,1.40,18,1,3,0,1,1
3553503,-3857,-847,-6345,-2831,155,-6345,2835.2,176.87,189.08,-391,-1338,-6256,1659,973,-1803,34.1349953,-118.1457407,1.11,164.68,1.40,18,1,3,0,1,1
3553513,-3857,-847,-6345,-2831,155,-6345,2835.2,176.87,189.08,-276,-1499,-6489,1780,1407,-2038,34.1349953,-118.1457407,1.11,164.68,1.40,18,1,3,0,1,1
3553523,-3857,-847,-6345,-2831,155,-6345,2835.2,176.87,189.08,-64,-1649,-6771,1575,1615,-2173,34.1349953,-118.1457407,1.11,164.68,1.40,18,1,3,0,1,1
3553533,-3857,-847,-6345,-2831,155,-6345,2835.2,176.87,189.08,309,-1746,-7340,503,1313,-2190,34.1349953,-118.1457407,1.11,164.68,1.40,18,1,3,0,1,1
3553543,-3857,-847,-6345,-2831,155,-6345,2835.2,176.87,189.08,468,-1724,-7776,-86,832,-2012,34.1349953,-118.1457407,1.11,164.68,1.40,18,1,3,0,1,1
3553553,-3857,-847,-6345,-2831,155,-6345,2835.2,176.87,189.08,539,-1652,-8168,-196,421,-1610,34.1349953,-118.1457407,1.11,164.68,1.40,18,1,3,0,1,1
3553563,-3945,-775,-6325,-2919,227,-6325,2927.8,175.55,187.77,578,-1521,-8495,-81,267,-1062,34.1349945,-118.1457400,1.70,152.46,1.37,19,1,3,0,1,1
3553573,-3945,-775,-6325,-2919,227,-6325,2927.8,175.55,187.77,593,-1214,-8970,-216,201,-329,34.1349945,-118.1457400,1.70,152.46,1.37,19,1,3,0,1,1
3553583,-3945,-775,-6325,-2919,227,-6325,2927.8,175.55,187.77,462,-955,-9328,-380,110,20,34.1349945,-118.1457400,1.70,152.46,1.37,19,1,3,0,1,1
3553593,-3945,-775,-6325,-2919,227,-6325,2927.8,175.55,187.77,197,-751,-9678,-332,-33,141,34.1349945,-118.1457400,1.70,152.46,1.37,19,1,3,0,1,1
3553603,-3945,-775,-6325,-2919,227,-6325,2927.8,175.55,187.77,-60,-625,-9919,43,-64,-134,34.1349945,-118.1457400,1.70,152.46,1.37,19,1,3,0,1,1
3553613,-3945,-775,-6325,-2919,227,-6325,2927.8,175.55,187.77,-26,-401,-10004,450,245,-1200,34.1349945,-118.1457400,1.70,152.46,1.37,19,1,3,0,1,1
3553623,-3945,-775,-6325,-2919,227,-6325,2927.8,175.55,187.77,233,-369,-9961,207,357,-2155,34.1349945,-118.1457400,1.70,152.46,1.37,19,1,3,0,1,1
3553633,-3945,-775,-6325,-2919,227,-6325,2927.8,175.55,187.77,480,-663,-9939,-198,271,-2967,34.1349945,-118.1457400,1.70,152.46,1.37,19,1,3,0,1,1
3553643,-3945,-775,-6325,-2919,227,-6325,2927.8,175.55,187.77,685,-1199,-9986,-865,222,-3276,34.1349945,-118.1457400,1.70,152.46,1.37,19,1,3,0,1,1
3553653,-3945,-775,-6325,-2919,227,-6325,2927.8,175.55,187.77,997,-1693,-10296,-2507,590,-2554,34.1349945,-118.1457400,1.70,152.46,1.37,19,1,3,0,1,1
3553663,-3810,-747,-6352,-2784,255,-6352,2795.7,174.77,186.98,1180,-1502,-10668,-3335,1018,-1569,34.1349933,-118.1457393,2.41,151.07,1.37,19,1,3,0,1,1
3553673,-3810,-747,-6352,-2784,255,-6352,2795.7,174.77,186.98,1239,-1047,-11017,-3294,1328,-517,34.1349933,-118.1457393,2.41,151.07,1.37,19,1,3,0,1,1
3553683,-3810,-747,-6352,-2784,255,-6352,2795.7,174.77,186.98,1059,-601,-11251,-2514,1476,398,34.1349933,-118.1457393,2.41,151.07,1.37,19,1,3,0,1,1
3553693,-3810,-747,-6352,-2784,255,-6352,2795.7,174.77,186.98,488,-91,-11188,-423,1703,908,34.1349933,-118.1457393,2.41,151.07,1.37,19,1,3,0,1,1
3553703,-3810,-747,-6352,-2784,255,-6352,2795.7,174.77,186.98,101,115,-10710,1595,1765,705,34.1349933,-118.1457393,2.41,151.07,1.37,19,1,3,0,1,1
3553713,-3810,-747,-6352,-2784,255,-6352,2795.7,174.77,186.98,-237,35,-9975,3264,1403,469,34.1349933,-118.1457393,2.41,151.07,1.37,19,1,3,0,1,1
3553723,-3810,-747,-6352,-2784,255,-6352,2795.7,174.77,186.98,-527,-295,-9194,3650,599,197,34.1349933,-118.1457393,2.41,151.07,1.37,19,1,3,0,1,1
3553733,-3810,-747,-6352,-2784,255,-6352,2795.7,174.77,186.98,-916,-786,-8174,2329,-783,-121,34.1349933,-118.1457393,2.41,151.07,1.37,19,1,3,0,1,1
3553743,-3810,-747,-6352,-2784,255,-6352,2795.7,174.77,186.98,-1182,-970,-7591,1109,-1654,112,34.1349933,-118.1457393,2.41,151.07,1.37,19,1,3,0,1,1
3553753,-3810,-747,-6352,-2784,255,-6352,2795.7,174.77,186.98,-1478,-1011,-7140,-115,-2203,586,34.1349933,-118.1457393,2.41,151.07,1.37,19,1,3,0,1,1
3553763,-3810,-747,-6352,-2784,255,-6352,2795.7,174.77,186.98,-1775,-904,-6871,-1256,-1940,1088,34.1349924,-118.1457392,1.93,169.22,1.40,18,1,3,0,1,1
3553773,-3852,-697,-6380,-2826,305,-6380,2842.4,173.84,186.06,-2014,-424,-6886,-2303,-205,1901,34.1349924,-118.1457392,1.93,169.22,1.40,18,1,3,0,1,1
3553783,-3852,-697,-6380,-2826,305,-6380,2842.4,173.84,186.06,-1921,102,-7163,-2322,1106,2234,34.1349924,-118.1457392,1.93,169.22,1.40,18,1,3,0,1,1
3553793,-3852,-697,-6380,-2826,305,-6380,2842.4,173.84,186.06,-1657,638,-7482,-1923,1976,2083,34.1349924,-118.1457392,1.93,169.22,1.40,18,1,3,0,1,1
3553803,-3852,-697,-6380,-2826,305,-6380,2842.4,173.84,186.06,-1344,1020,-7665,-1449,2042,1575,34.1349924,-118.1457392,1.93,169.22,1.40,18,1,3,0,1,1
3553813,-3852,-697,-6380,-2826,305,-6380,2842.4,173.84,186.06,-972,1355,-7559,-900,981,444,34.1349924,-118.1457392,1.93,169.22,1.40,18,1,3,0,1,1
3553823,-3852,-697,-6380,-2826,305,-6380,2842.4,173.84,186.06,-739,1508,-7223,-503,57,-590,34.1349924,-118.1457392,1.93,169.22,1.40,18,1,3,0,1,1
3553833,-3852,-697,-6380,-2826,305,-6380,2842.4,173.84,186.06,-535,1440,-6713,108,-729,-1731,34.1349924,-118.1457392,1.93,169.22,1.40,18,1,3,0,1,1
3553843,-3852,-697,-6380,-2826,305,-6380,2842.4,173.84,186.06,-389,1085,-6082,867,-1208,-2717,34.1349924,-118.1457392,1.93,169.22,1.40,18,1,3,0,1,1
3553853,-3852,-697,-6380,-2826,305,-6380,2842.4,173.84,186.06,-151,387,-5075,1502,-1211,-3509,34.1349924,-118.1457392,1.93,169.22,1.40,18,1,3,0,1,1
3553863,-3907,-670,-6307,-2881,332,-6307,2900.1,173.43,185.64,63,34,-4529,1431,-702,-3772,34.1349916,-118.1457390,2.05,185.16,1.37,19,1,3,0,1,1
3553873,-3907,-670,-6307,-2881,332,-6307,2900.1,173.43,185.64,304,-232,-4170,1211,3,-3930,34.1349916,-118.1457390,2.05,185.16,1.37,19,1,3,0,1,1
3553883,-3907,-670,-6307,-2881,332,-6307,2900.1,173.43,185.64,545,-493,-3988,902,690,-3881,34.1349916,-118.1457390,2.05,185.16,1.37,19,1,3,0,1,1
3553893,-3907,-670,-6307,-2881,332,-6307,2900.1,173.43,185.64,861,-872,-3987,309,1496,-3340,34.1349916,-118.1457390,2.05,185.16,1.37,19,1,3,0,1,1
3553903,-3907,-670,-6307,-2881,332,-6307,2900.1,173.43,185.64,1024,-1016,-4127,-113,1763,-2793,34.1349916,-118.1457390,2.05,185.16,1.37,19,1,3,0,1,1
3553913,-3907,-670,-6307,-2881,332,-6307,2900.1,173.43,185.64,1104,-1062,-4331,-447,1813,-2212,34.1349916,-118.1457390,2.05,185.16,1.37,19,1,3,0,1,1
3553923,-3907,-670,-6307,-2881,332,-6307,2900.1,173.43,185.64,1079,-1030,-4549,-536,1698,-1642,34.1349916,-118.1457390,2.05,185.16,1.37,19,1,3,0,1,1
3553933,-3907,-670,-6307,-2881,332,-6307,2900.1,173.43,185.64,904,-908,-4795,-306,1412,-891,34.1349916,-118.1457390,2.05,185.16,1.37,19,1,3,0,1,1
3553943,-3907,-670,-6307,-2881,332,-6307,2900.1,173.43,185.64,724,-871,-4893,-148,1139,-522,34.1349916,-118.1457390,2.05,185.16,1.37,19,1,3,0,1,1
3553953,-3907,-670,-6307,-2881,332,-6307,2900.1,173.43,185.64,518,-862,-4984,-212,826,-216,34.1349916,-118.1457390,2.05,185.16,1.37,19,1,3,0,1,1
3553963,-3862,-515,-6312,-2836,487,-6312,2877.5,170.26,182.47,324,-805,-5115,-448,640,-17,34.1349901,-118.1457385,2.62,172.30,1.37,19,1,3,0,1,1
3553973,-3862,-515,-6312,-2836,487,-6312,2877.5,170.26,182.47,100,-649,-5390,-729,575,138,34.1349901,-118.1457385,2.62,172.30,1.37,19,1,3,0,1,1
3553983,-3862,-515,-6312,-2836,487,-6312,2877.5,170.26,182.47,-1,-596,-5639,-823,488,202,34.1349901,-118.1457385,2.62,172.30,1.37,19,1,3,0,1,1
3553993,-3862,-515,-6312,-2836,487,-6312,2877.5,170.26,182.47,-72,-581,-5917,-791,368,219,34.1349901,-118.1457385,2.62,172.30,1.37,19,1,3,0,1,1
3554003,-3862,-515,-6312,-2836,487,-6312,2877.5,170.26,182.47,-107,-561,-6230,-756,268,269,34.1349901,-118.1457385,2.62,172.30,1.37,19,1,3,0,1,1
3554013,-3862,-515,-6312,-2836,487,-6312,2877.5,170.26,182.47,-72,-477,-6744,-836,103,411,34.1349901,-118.1457385,2.62,172.30,1.37,19,1,3,0,1,1
3554023,-3862,-515,-6312,-2836,487,-6312,2877.5,170.26,182.47,-23,-373,-7085,-843,-53,468,34.1349901,-118.1457385,2.62,172.30,1.37,19,1,3,0,1,1
3554033,-3862,-515,-6312,-2836,487,-6312,2877.5,170.26,182.47,14,-253,-7439,-855,-260,534,34.1349901,-118.1457385,2.62,172.30,1.37,19,1,3,0,1,1
3554043,-3862,-515,-6312,-2836,487,-6312,2877.5,170.26,182.47,66,-175,-7924,-781,-426,460,34.1349901,-118.1457385,2.62,172.30,1.37,19,1,3,0,1,1
3554053,-3862,-515,-6312,-2836,487,-6312,2877.5,170.26,182.47,113,-245,-8180,-724,-572,376,34.1349901,-118.1457385,2.62,172.30,1.37,19,1,3,0,1,1
3554063,-3862,-515,-6312,-2836,487,-6312,2877.5,170.26,182.47,151,-366,-8385,-810,-741,404,34.1349886,-118.1457378,2.77,162.41,1.37,19,1,3,0,1,1
3554073,-3800,-525,-6380,-2774,477,-6380,2814.7,170.24,182.46,142,-479,-8579,-1095,-791,427,34.1349886,-118.1457378,2.77,162.41,1.37,19,1,3,0,1,1
3554083,-3800,-525,-6380,-2774,477,-6380,2814.7,170.24,182.46,103,-676,-8964,-1771,-717,302,34.1349886,-118.1457378,2.77,162.41,1.37,19,1,3,0,1,1
3554093,-3800,-525,-6380,-2774,477,-6380,2814.7,170.24,182.46,126,-905,-9248,-2136,-666,25,34.1349886,-118.1457378,2.77,162.41,1.37,19,1,3,0,1,1
3554103,-3800,-525,-6380,-2774,477,-6380,2814.7,170.24,182.46,179,-1184,-9478,-2475,-718,-146,34.1349886,-118.1457378,2.77,162.41,1.37,19,1,3,0,1,1
3554113,-3800,-525,-6380,-2774,477,-6380,2814.7,170.24,182.46,195,-1409,-9609,-2975,-937,29,34.1349886,-118.1457378,2.77,162.41,1.37,19,1,3,0,1,1
3554123,-3800,-525,-6380,-2774,477,-6380,2814.7,170.24,182.46,-160,-1495,-9610,-3925,-1267,563,34.1349886,-118.1457378,2.77,162.41,1.37,19,1,3,0,1,1
3554133,-3800,-525,-6380,-2774,477,-6380,2814.7,170.24,182.46,-273,-1411,-9685,-4525,-1008,929,34.1349886,-118.1457378,2.77,162.41,1.37,19,1,3,0,1,1
3554143,-3800,-525,-6380,-2774,477,-6380,2814.7,170.24,182.46,-477,-1272,-10028,-5309,-469,1199,34.1349886,-118.1457378,2.77,162.41,1.37,19,1,3,0,1,1
3554153,-3800,-525,-6380,-2774,477,-6380,2814.7,170.24,182.46,-473,-1064,-10635,-6079,125,1178,34.1349886,-118.1457378,2.77,162.41,1.37,19,1,3,0,1,1
3554163,-3697,-562,-6525,-2671,440,-6525,2707.0,170.65,182.86,4,-574,-11565,-6050,540,582,34.1349886,-118.1457378,2.77,162.41,1.37,19,1,3,0,1,1
3554173,-3697,-562,-6525,-2671,440,-6525,2707.0,170.65,182.86,441,-323,-11987,-5020,243,240,34.1349886,-118.1457378,2.77,162.41,1.37,19,1,3,0,1,1
3554183,-3697,-562,-6525,-2671,440,-6525,2707.0,170.65,182.86,820,-229,-12232,-3440,-148,178,34.1349886,-118.1457378,2.77,162.41,1.37,19,1,3,0,1,1
3554193,-3697,-562,-6525,-2671,440,-6525,2707.0,170.65,182.86,1166,-174,-12300,-1815,-578,415,34.1349886,-118.1457378,2.77,162.41,1.37,19,1,3,0,1,1
3554203,-3697,-562,-6525,-2671,440,-6525,2707.0,170.65,182.86,1620,108,-12088,35,-1210,1290,34.1349886,-118.1457378,2.77,162.41,1.37,19,1,3,0,1,1
3554213,-3697,-562,-6525,-2671,440,-6525,2707.0,170.65,182.86,1807,443,-11773,1053,-1400,2193,34.1349886,-118.1457378,2.77,162.41,1.37,19,1,3,0,1,1
3554223,-3697,-562,-6525,-2671,440,-6525,2707.0,170.65,182.86,1893,849,-11338,2100,-1453,3038,34.1349886,-118.1457378,2.77,162.41,1.37,19,1,3,0,1,1
3554233,-3697,-562,-6525,-2671,440,-6525,2707.0,170.65,182.86,1892,1254,-10788,3131,-1430,3587,34.1349886,-118.1457378,2.77,162.41,1.37,19,1,3,0,1,1
3554243,-3697,-562,-6525,-2671,440,-6525,2707.0,170.65,182.86,1738,1716,-9696,4575,-1566,3864,34.1349886,-118.1457378,2.77,162.41,1.37,19,1,3,0,1,1
3554253,-3697,-562,-6525,-2671,440,-6525,2707.0,170.65,182.86,1541,1825,-8727,5467,-1884,3550,34.1349886,-118.1457378,2.77,162.41,1.37,19,1,3,0,1,1
3554263,-3907,-752,-6307,-2881,250,-6307,2891.8,175.04,187.26,1264,1707,-7650,6161,-2224,2904,34.1349863,-118.1457371,1.99,163.64,1.37,19,1,3,0,1,1
3554273,-3907,-752,-6307,-2881,250,-6307,2891.8,175.04,187.26,980,1379,-6577,6520,-2412,2057,34.1349863,-118.1457371,1.99,163.64,1.37,19,1,3,0,1,1
3554283,-3907,-752,-6307,-2881,250,-6307,2891.8,175.04,187.26,661,563,-5095,6318,-2133,691,34.1349863,-118.1457371,1.99,163.64,1.37,19,1,3,0,1,1
3554293,-3907,-752,-6307,-2881,250,-6307,2891.8,175.04,187.26,497,-186,-4356,5505,-1799,-45,34.1349863,-118.1457371,1.99,163.64,1.37,19,1,3,0,1,1
3554303,-3907,-752,-6307,-2881,250,-6307,2891.8,175.04,187.26,384,-969,-3878,4128,-1566,-543,34.1349863,-118.1457371,1.99,163.64,1.37,19,1,3,0,1,1
3554313,-3907,-752,-6307,-2881,250,-6307,2891.8,175.04,187.26,337,-1658,-3593,2475,-1476,-711,34.1349863,-118.1457371,1.99,163.64,1.37,19,1,3,0,1,1
3554323,-3907,-752,-6307,-2881,250,-6307,2891.8,175.04,187.26,270,-2339,-3480,-62,-1327,-234,34.1349863,-118.1457371,1.99,163.64,1.37,19,1,3,0,1,1
3554333,-3907,-752,-6307,-2881,250,-6307,2891.8,175.04,187.26,226,-2477,-3650,-1513,-1044,401,34.1349863,-118.1457371,1.99,163.64,1.37,19,1,3,0,1,1
3554343,-3907,-752,-6307,-2881,250,-6307,2891.8,175.04,187.26,210,-2368,-4007,-2499,-519,1217,34.1349863,-118.1457371,1.99,163.64,1.37,19,1,3,0,1,1
3554353,-3907,-752,-6307,-2881,250,-6307,2891.8,175.04,187.26,197,-2111,-4495,-3000,124,2139,34.1349863,-118.1457371,1.99,163.64,1.37,19,1,3,0,1,1
3554363,-3852,-790,-6367,-2826,212,-6367,2833.9,175.71,187.93,111,-1547,-5259,-3416,635,3348,34.1349852,-118.1457367,1.93,161.03,1.37,19,1,3,0,1,1
3554373,-3852,-790,-6367,-2826,212,-6367,2833.9,175.71,187.93,15,-1021,-5728,-3438,645,3792,34.1349852,-118.1457367,1.93,161.03,1.37,19,1,3,0,1,1
3554383,-3852,-790,-6367,-2826,212,-6367,2833.9,175.71,187.93,-77,-460,-6129,-2876,577,3912,34.1349852,-118.1457367,1.93,161.03,1.37,19,1,3,0,1,1
3554393,-3852,-790,-6367,-2826,212,-6367,2833.9,175.71,187.93,-147,-36,-6432,-1862,340,3742,34.1349852,-118.1457367,1.93,161.03,1.37,19,1,3,0,1,1
3554403,-3852,-790,-6367,-2826,212,-6367,2833.9,175.71,187.93,-249,232,-6686,-502,-490,2884,34.1349852,-118.1457367,1.93,161.03,1.37,19,1,3,0,1,1
3554413,-3852,-790,-6367,-2826,212,-6367,2833.9,175.71,187.93,-327,265,-6668,38,-1286,2134,34.1349852,-118.1457367,1.93,161.03,1.37,19,1,3,0,1,1
3554423,-3852,-790,-6367,-2826,212,-6367,2833.9,175.71,187.93,-403,241,-6476,457,-2206,1331,34.1349852,-118.1457367,1.93,161.03,1.37,19,1,3,0,1,1
3554433,-3852,-790,-6367,-2826,212,-6367,2833.9,175.71,187.93,-510,127,-6177,749,-3079,585,34.1349852,-118.1457367,1.93,161.03,1.37,19,1,3,0,1,1
3554443,-3852,-790,-6367,-2826,212,-6367,2833.9,175.71,187.93,-695,-185,-5669,876,-3710,-243,34.1349852,-118.1457367,1.93,161.03,1.37,19,1,3,0,1,1
3554453,-3852,-790,-6367,-2826,212,-6367,2833.9,175.71,187.93,-767,-415,-5391,753,-3573,-701,34.1349852,-118.1457367,1.93,161.03,1.37,19,1,3,0,1,1
3554463,-3847,-972,-6312,-2821,30,-6312,2821.2,179.39,191.61,-762,-598,-5213,507,-3073,-1140,34.1349843,-118.1457365,1.65,159.83,1.37,19,1,3,0,1,1
3554473,-3847,-972,-6312,-2821,30,-6312,2821.2,179.39,191.61,-707,-737,-5148,320,-2363,-1497,34.1349843,-118.1457365,1.65,159.83,1.37,19,1,3,0,1,1
3554483,-3847,-972,-6312,-2821,30,-6312,2821.2,179.39,191.61,-606,-985,-5290,105,-1227,-1812,34.1349843,-118.1457365,1.65,159.83,1.37,19,1,3,0,1,1
3554493,-3847,-972,-6312,-2821,30,-6312,2821.2,179.39,191.61,-552,-1129,-5482,-46,-612,-2039,34.1349843,-118.1457365,1.65,159.83,1.37,19,1,3,0,1,1
3554503,-3847,-972,-6312,-2821,30,-6312,2821.2,179.39,191.61,-503,-1195,-5722,-57,-126,-2343,34.1349843,-118.1457365,1.65,159.83,1.37,19,1,3,0,1,1
3554513,-3847,-972,-6312,-2821,30,-6312,2821.2,179.39,191.61,-421,-1223,-6017,86,308,-2622,34.1349843,-118.1457365,1.65,159.83,1.37,19,1,3,0,1,1
3554523,-3847,-972,-6312,-2821,30,-6312,2821.2,179.39,191.61,-130,-1269,-6558,338,830,-3030,34.1349843,-118.1457365,1.65,159.83,1.37,19,1,3,0,1,1
3554533,-3847,-972,-6312,-2821,30,-6312,2821.2,179.39,191.61,140,-1294,-6931,371,883,-3222,34.1349843,-118.1457365,1.65,159.83,1.37,19,1,3,0,1,1
3554543,-3847,-972,-6312,-2821,30,-6312,2821.2,179.39,191.61,354,-1335,-7313,276,702,-3235,34.1349843,-118.1457365,1.65,159.83,1.37,19,1,3,0,1,1
3554553,-3847,-972,-6312,-2821,30,-6312,2821.2,179.39,191.61,469,-1385,-7703,195,500,-3085,34.1349843,-118.1457365,1.65,159.83,1.37,19,1,3,0,1,1
3554563,-3852,-847,-6345,-2826,155,-6345,2830.2,176.86,189.08,552,-1380,-8229,210,278,-2842,34.1349833,-118.1457363,1.81,162.44,1.37,19,1,3,0,1,1
3554573,-3852,-847,-6345,-2826,155,-6345,2830.2,176.86,189.08,608,-1304,-8554,113,146,-2462,34.1349833,-118.1457363,1.81,162.44,1.37,19,1,3,0,1,1
3554583,-3852,-847,-6345,-2826,155,-6345,2830.2,176.86,189.08,626,-1209,-8910,-166,-54,-2040,34.1349833,-118.1457363,1.81,162.44,1.37,19,1,3,0,1,1
3554593,-3852,-847,-6345,-2826,155,-6345,2830.2,176.86,189.08,526,-1091,-9300,-477,-326,-1637,34.1349833,-118.1457363,1.81,162.44,1.37,19,1,3,0,1,1
3554603,-3852,-847,-6345,-2826,155,-6345,2830.2,176.86,189.08,85,-851,-9829,-392,-508,-1188,34.1349833,-118.1457363,1.81,162.44,1.37,19,1,3,0,1,1
3554613,-3852,-847,-6345,-2826,155,-6345,2830.2,176.86,189.08,-327,-704,-10084,115,-325,-1361,34.1349833,-118.1457363,1.81,162.44,1.37,19,1,3,0,1,1
3554623,-3852,-847,-6345,-2826,155,-6345,2830.2,176.86,189.08,-642,-624,-10219,875,141,-2156,34.1349833,-118.1457363,1.81,162.44,1.37,19,1,3,0,1,1
3554633,-3852,-847,-6345,-2826,155,-6345,2830.2,176.86,189.08,-649,-618,-10266,1473,1300,-4359,34.1349833,-118.1457363,1.81,162.44,1.37,19,1,3,0,1,1
3554643,-3852,-847,-6345,-2826,155,-6345,2830.2,176.86,189.08,21,-894,-10332,1469,1855,-5915,34.1349833,-118.1457363,1.81,162.44,1.37,19,1,3,0,1,1
3554653,-3852,-847,-6345,-2826,155,-6345,2830.2,176.86,189.08,627,-1352,-10351,1320,1842,-6931,34.1349833,-118.1457363,1.81,162.44,1.37,19,1,3,0,1,1
3554663,-3847,-717,-6282,-2821,285,-6282,2835.4,174.23,186.45,1101,-1929,-10356,1153,1606,-7189,34.1349824,-118.1457361,1.70,169.31,1.37,19,1,3,0,1,1
3554673,-3847,-717,-6282,-2821,285,-6282,2835.4,174.23,186.45,1452,-2395,-10435,564,1570,-6587,34.1349824,-118.1457361,1.70,169.31,1.37,19,1,3,0,1,1
3554683,-3847,-717,-6282,-2821,285,-6282,2835.4,174.23,186.45,1878,-2302,-10681,-732,1822,-4272,34.1349824,-118.1457361,1.70,169.31,1.37,19,1,3,0,1,1
3554693,-3847,-717,-6282,-2821,285,-6282,2835.4,174.23,186.45,1981,-1652,-10797,-858,2092,-2440,34.1349824,-118.1457361,1.70,169.31,1.37,19,1,3,0,1,1
3554703,-3847,-717,-6282,-2821,285,-6282,2835.4,174.23,186.45,1839,-857,-10761,-66,2460,-920,34.1349824,-118.1457361,1.70,169.31,1.37,19,1,3,0,1,1
3554713,-3847,-717,-6282,-2821,285,-6282,2835.4,174.23,186.45,1462,-246,-10544,1256,3220,388,34.1349824,-118.1457361,1.70,169.31,1.37,19,1,3,0,1,1
3554723,-3847,-717,-6282,-2821,285,-6282,2835.4,174.23,186.45,711,79,-9947,3336,3415,775,34.1349824,-118.1457361,1.70,169.31,1.37,19,1,3,0,1,1
3554733,-3847,-717,-6282,-2821,285,-6282,2835.4,174.23,186.45,299,37,-9387,4205,3003,1044,34.1349824,-118.1457361,1.70,169.31,1.37,19,1,3,0,1,1
3554743,-3847,-717,-6282,-2821,285,-6282,2835.4,174.23,186.45,3,-67,-8694,4185,1964,1254,34.1349824,-118.1457361,1.70,169.31,1.37,19,1,3,0,1,1
3554753,-3847,-717,-6282,-2821,285,-6282,2835.4,174.23,186.45,-295,-202,-7953,2668,-121,1594,34.1349824,-118.1457361,1.70,169.31,1.37,19,1,3,0,1,1
3554763,-4030,-557,-6247,-3004,445,-6247,3036.8,171.57,183.79,-864,-414,-7055,1018,-1285,2031,34.1349815,-118.1457359,1.67,169.21,1.37,19,1,3,0,1,1
3554773,-4030,-557,-6247,-3004,445,-6247,3036.8,171.57,183.79,-1227,-376,-6719,-985,-2043,2593,34.1349815,-118.1457359,1.67,169.21,1.37,19,1,3,0,1,1
3554783,-4030,-557,-6247,-3004,445,-6247,3036.8,171.57,183.79,-1479,-100,-6597,-3023,-2187,3139,34.1349815,-118.1457359,1.67,169.21,1.37,19,1,3,0,1,1
3554793,-4030,-557,-6247,-3004,445,-6247,3036.8,171.57,183.79,-1615,332,-6733,-4734,-1156,3653,34.1349815,-118.1457359,1.67,169.21,1.37,19,1,3,0,1,1
3554803,-4030,-557,-6247,-3004,445,-6247,3036.8,171.57,183.79,-1619,1025,-6968,-4637,-153,3616,34.1349815,-118.1457359,1.67,169.21,1.37,19,1,3,0,1,1
3554813,-4030,-557,-6247,-3004,445,-6247,3036.8,171.57,183.79,-1497,1397,-7155,-3960,574,3180,34.1349815,-118.1457359,1.67,169.21,1.37,19,1,3,0,1,1
3554823,-4030,-557,-6247,-3004,445,-6247,3036.8,171.57,183.79,-1357,1654,-7176,-3221,916,2276,34.1349815,-118.1457359,1.67,169.21,1.37,19,1,3,0,1,1
3554833,-4030,-557,-6247,-3004,445,-6247,3036.8,171.57,183.79,-1199,1766,-6924,-2113,1064,156,34.1349815,-118.1457359,1.67,169.21,1.37,19,1,3,0,1,1
3554843,-4030,-557,-6247,-3004,445,-6247,3036.8,171.57,183.79,-809,1531,-6633,-1227,1091,-1454,34.1349815,-118.1457359,1.67,169.21,1.37,19,1,3,0,1,1
3554853,-4030,-557,-6247,-3004,445,-6247,3036.8,171.57,183.79,-498,1013,-6271,-410,1092,-2891,34.1349815,-118.1457359,1.67,169.21,1.37,19,1,3,0,1,1
3554863,-3890,-577,-6302,-2864,425,-6302,2895.4,171.56,183.78,-180,415,-5875,46,1086,-3923,34.1349805,-118.1457357,1.84,179.52,1.37,19,1,3,0,1,1
3554873,-3890,-577,-6302,-2864,425,-6302,2895.4,171.56,183.78,394,-241,-5337,-127,1290,-4731,34.1349805,-118.1457357,1.84,179.52,1.37,19,1,3,0,1,1
3554883,-3890,-577,-6302,-2864,425,-6302,2895.4,171.56,183.78,825,-583,-5114,-514,1659,-4970,34.1349805,-118.1457357,1.84,179.52,1.37,19,1,3,0,1,1
3554893,-3890,-577,-6302,-2864,425,-6302,2895.4,171.56,183.78,1207,-949,-5062,-847,2106,-4853,34.1349805,-118.1457357,1.84,179.52,1.37,19,1,3,0,1,1
3554903,-3890,-577,-6302,-2864,425,-6302,2895.4,171.56,183.78,1512,-1278,-5167,-921,2584,-4336,34.1349805,-118.1457357,1.84,179.52,1.37,19,1,3,0,1,1
3554913,-3890,-577,-6302,-2864,425,-6302,2895.4,171.56,183.78,1864,-1489,-5361,-487,3170,-3096,34.1349805,-118.1457357,1.84,179.52,1.37,19,1,3,0,1,1
3554923,-3890,-577,-6302,-2864,425,-6302,2895.4,171.56,183.78,2010,-1450,-5421,31,3311,-2158,34.1349805,-118.1457357,1.84,179.52,1.37,19,1,3,0,1,1
3554933,-3890,-577,-6302,-2864,425,-6302,2895.4,171.56,183.78,2045,-1396,-5460,560,3226,-1216,34.1349805,-118.1457357,1.84,179.52,1.37,19,1,3,0,1,1
3554943,-3890,-577,-6302,-2864,425,-6302,2895.4,171.56,183.78,1991,-1385,-5494,951,2919,-345,34.1349805,-118.1457357,1.84,179.52,1.37,19,1,3,0,1,1
3554953,-3890,-577,-6302,-2864,425,-6302,2895.4,171.56,183.78,1706,-1338,-5479,1141,2051,698,34.1349805,-118.1457357,1.84,179.52,1.37,19,1,3,0,1,1
3554963,-3927,-410,-6297,-2901,592,-6297,2960.8,168.47,180.68,1377,-1286,-5452,1100,1364,1318,34.1349795,-118.1457358,1.63,189.28,1.37,19,1,3,0,1,1
3554973,-3927,-410,-6297,-2901,592,-6297,2960.8,168.47,180.68,1026,-1268,-5468,933,810,1823,34.1349795,-118.1457358,1.63,189.28,1.37,19,1,3,0,1,1
3554983,-3927,-410,-6297,-2901,592,-6297,2960.8,168.47,180.68,731,-1235,-5534,638,342,2188,34.1349795,-118.1457358,1.63,189.28,1.37,19,1,3,0,1,1
3554993,-3927,-410,-6297,-2901,592,-6297,2960.8,168.47,180.68,392,-990,-5674,277,-182,2572,34.1349795,-118.1457358,1.63,189.28,1.37,19,1,3,0,1,1
3555003,-3927,-410,-6297,-2901,592,-6297,2960.8,168.47,180.68,190,-770,-5816,235,-286,2723,34.1349795,-118.1457358,1.63,189.28,1.37,19,1,3,0,1,1
3555013,-3927,-410,-6297,-2901,592,-6297,2960.8,168.47,180.68,1,-592,-6037,257,-238,2785,34.1349795,-118.1457358,1.63,189.28,1.37,19,1,3,0,1,1
3555023,-3927,-410,-6297,-2901,592,-6297,2960.8,168.47,180.68,-148,-459,-6333,357,-174,2745,34.1349795,-118.1457358,1.63,189.28,1.37,19,1,3,0,1,1
3555033,-3927,-410,-6297,-2901,592,-6297,2960.8,168.47,180.68,-250,-298,-6761,778,-106,2607,34.1349795,-118.1457358,1.63,189.28,1.37,19,1,3,0,1,1
3555043,-3927,-410,-6297,-2901,592,-6297,2960.8,168.47,180.68,-262,-215,-6986,1200,-72,2501,34.1349795,-118.1457358,1.63,189.28,1.37,19,1,3,0,1,1
3555053,-3927,-410,-6297,-2901,592,-6297,2960.8,168.47,180.68,-247,-156,-7206,1470,-110,2447,34.1349795,-118.1457358,1.63,189.28,1.37,19,1,3,0,1,1
3555063,-3885,-525,-6250,-2859,477,-6250,2898.5,170.53,182.74,-236,-135,-7442,1333,-248,2337,34.1349785,-118.1457360,1.56,198.95,1.37,19,1,3,0,1,1
3555073,-3885,-525,-6250,-2859,477,-6250,2898.5,170.53,182.74,-241,-216,-7897,642,-458,1904,34.1349785,-118.1457360,1.56,198.95,1.37,19,1,3,0,1,1
3555083,-3885,-525,-6250,-2859,477,-6250,2898.5,170.53,182.74,-219,-354,-8290,219,-571,1666,34.1349785,-118.1457360,1.56,198.95,1.37,19,1,3,0,1,1
3555093,-3885,-525,-6250,-2859,477,-6250,2898.5,170.53,182.74,-171,-532,-8706,-206,-743,1398,34.1349785,-118.1457360,1.56,198.95,1.37,19,1,3,0,1,1
3555103,-3885,-525,-6250,-2859,477,-6250,2898.5,170.53,182.74,-126,-730,-9109,-501,-909,1053,34.1349785,-118.1457360,1.56,198.95,1.37,19,1,3,0,1,1
3555113,-3885,-525,-6250,-2859,477,-6250,2898.5,170.53,182.74,-101,-1158,-9620,-142,-1039,690,34.1349785,-118.1457360,1.56,198.95,1.37,19,1,3,0,1,1
3555123,-3885,-525,-6250,-2859,477,-6250,2898.5,170.53,182.74,-32,-1560,-9763,493,-1037,444,34.1349785,-118.1457360,1.56,198.95,1.37,19,1,3,0,1,1
3555133,-3885,-525,-6250,-2859,477,-6250,2898.5,170.53,182.74,134,-1938,-9699,1007,-953,380,34.1349785,-118.1457360,1.56,198.95,1.37,19,1,3,0,1,1
3555143,-3885,-525,-6250,-2859,477,-6250,2898.5,170.53,182.74,289,-2215,-9562,919,-970,811,34.1349785,-118.1457360,1.56,198.95,1.37,19,1,3,0,1,1
3555153,-3885,-525,-6250,-2859,477,-6250,2898.5,170.53,182.74,249,-2366,-9455,-288,-1081,1921,34.1349785,-118.1457360,1.56,198.95,1.37,19,1,3,0,1,1
3555163,-4002,-645,-6227,-2976,357,-6227,2997.3,173.16,185.38,128,-2193,-9446,-1220,-876,2698,34.1349775,-118.1457361,1.47,200.37,1.37,19,1,3,0,1,1
3555173,-4002,-645,-6227,-2976,357,-6227,2997.3,173.16,185.38,56,-1723,-9533,-1939,-376,3527,34.1349775,-118.1457361,1.47,200.37,1.37,19,1,3,0,1,1
3555183,-4002,-645,-6227,-2976,357,-6227,2997.3,173.16,185.38,48,-1019,-9713,-2344,230,4113,34.1349775,-118.1457361,1.47,200.37,1.37,19,1,3,0,1,1
3555193,-4002,-645,-6227,-2976,357,-6227,2997.3,173.16,185.38,80,4,-9928,-1835,1028,3911,34.1349775,-118.1457361,1.47,200.37,1.37,19,1,3,0,1,1
3555203,-4002,-645,-6227,-2976,357,-6227,2997.3,173.16,185.38,120,331,-9940,-876,1341,3349,34.1349775,-118.1457361,1.47,200.37,1.37,19,1,3,0,1,1
3555213,-4002,-645,-6227,-2976,357,-6227,2997.3,173.16,185.38,229,405,-9848,-44,1280,2751,34.1349775,-118.1457361,1.47,200.37,1.37,19,1,3,0,1,1
3555223,-4002,-645,-6227,-2976,357,-6227,2997.3,173.16,185.38,430,371,-9644,337,904,2222,34.1349775,-118.1457361,1.47,200.37,1.37,19,1,3,0,1,1
3555233,-4002,-645,-6227,-2976,357,-6227,2997.3,173.16,185.38,659,219,-9175,-106,26,1751,34.1349775,-118.1457361,1.47,200.37,1.37,19,1,3,0,1,1
3555243,-4002,-645,-6227,-2976,357,-6227,2997.3,173.16,185.38,636,154,-8825,-650,-311,1705,34.1349775,-118.1457361,1.47,200.37,1.37,19,1,3,0,1,1
3555253,-4002,-645,-6227,-2976,357,-6227,2997.3,173.16,185.38,550,180,-8482,-804,-60,1763,34.1349775,-118.1457361,1.47,200.37,1.37,19,1,3,0,1,1
3555263,-3997,-717,-6250,-2971,285,-6250,2984.6,174.52,186.74,495,237,-8156,-577,566,1711,34.1349770,-118.1457361,1.34,201.79,1.37,19,1,3,0,1,1
3555273,-3997,-717,-6250,-2971,285,-6250,2984.6,174.52,186.74,457,58,-7656,-157,1143,1206,34.1349770,-118.1457361,1.34,201.79,1.37,19,1,3,0,1,1
3555283,-3997,-717,-6250,-2971,285,-6250,2984.6,174.52,186.74,360,-390,-7315,-144,953,649,34.1349770,-118.1457361,1.34,201.79,1.37,19,1,3,0,1,1
3555293,-3997,-717,-6250,-2971,285,-6250,2984.6,174.52,186.74,154,-1052,-6980,-587,347,241,34.1349770,-118.1457361,1.34,201.79,1.37,19,1,3,0,1,1
3555303,-3997,-717,-6250,-2971,285,-6250,2984.6,174.52,186.74,-85,-1695,-6677,-1315,-461,246,34.1349770,-118.1457361,1.34,201.79,1.37,19,1,3,0,1,1
3555313,-3997,-717,-6250,-2971,285,-6250,2984.6,174.52,186.74,-365,-2183,-6287,-2457,-1582,753,34.1349770,-118.1457361,1.34,201.79,1.37,19,1,3,0,1,1
3555323,-3997,-717,-6250,-2971,285,-6250,2984.6,174.52,186.74,-553,-2229,-6074,-3081,-2066,1180,34.1349770,-118.1457361,1.34,201.79,1.37,19,1,3,0,1,1
3555333,-3997,-717,-6250,-2971,285,-6250,2984.6,174.52,186.74,-793,-2174,-5926,-3476,-2125,1670,34.1349770,-118.1457361,1.34,201.79,1.37,19,1,3,0,1,1
3555343,-3997,-717,-6250,-2971,285,-6250,2984.6,174.52,186.74,-1039,-2000,-5880,-3584,-1798,2511,34.1349770,-118.1457361,1.34,201.79,1.37,19,1,3,0,1,1
3555353,-3997,-717,-6250,-2971,285,-6250,2984.6,174.52,186.74,-1268,-1422,-6015,-3216,-935,2900,34.1349770,-118.1457361,1.34,201.79,1.37,19,1,3,0,1,1
3555363,-3847,-935,-6340,-2821,67,-6340,2821.8,178.64,190.86,-1289,-909,-6195,-2798,-477,2907,34.1349763,-118.1457361,1.23,201.94,1.37,19,1,3,0,1,1
3555373,-3847,-935,-6340,-2821,67,-6340,2821.8,178.64,190.86,-1236,-434,-6368,-2375,-325,2503,34.1349763,-118.1457361,1.23,201.94,1.37,19,1,3,0,1,1
3555383,-3847,-935,-6340,-2821,67,-6340,2821.8,178.64,190.86,-1133,-76,-6489,-2063,-498,1350,34.1349763,-118.1457361,1.23,201.94,1.37,19,1,3,0,1,1
3555393,-3847,-935,-6340,-2821,67,-6340,2821.8,178.64,190.86,-926,139,-6566,-1696,-1142,494,34.1349763,-118.1457361,1.23,201.94,1.37,19,1,3,0,1,1
3555403,-3847,-935,-6340,-2821,67,-6340,2821.8,178.64,190.86,-734,125,-6513,-1288,-1657,-230,34.1349763,-118.1457361,1.23,201.94,1.37,19,1,3,0,1,1
3555413,-3847,-935,-6340,-2821,67,-6340,2821.8,178.64,190.86,-485,75,-6387,-829,-2227,-764,34.1349763,-118.1457361,1.23,201.94,1.37,19,1,3,0,1,1
3555423,-3847,-935,-6340,-2821,67,-6340,2821.8,178.64,190.86,-250,5,-6242,-419,-3027,-1292,34.1349763,-118.1457361,1.23,201.94,1.37,19,1,3,0,1,1
3555433,-3847,-935,-6340,-2821,67,-6340,2821.8,178.64,190.86,-61,-139,-5944,-323,-3394,-1580,34.1349763,-118.1457361,1.23,201.94,1.37,19,1,3,0,1,1
3555443,-3847,-935,-6340,-2821,67,-6340,2821.8,178.64,190.86,-44,-246,-5672,-186,-3486,-1770,34.1349763,-118.1457361,1.23,201.94,1.37,19,1,3,0,1,1
3555453,-3847,-935,-6340,-2821,67,-6340,2821.8,178.64,190.86,-42,-323,-5367,93,-3207,-1925,34.1349763,-118.1457361,1.23,201.94,1.37,19,1,3,0,1,1
3555463,-3847,-935,-6340,-2821,67,-6340,2821.8,178.64,190.86,-14,-454,-5075,390,-2131,-2232,34.1349756,-118.1457364,1.59,197.42,1.37,19,1,3,0,1,1
3555473,-3862,-915,-6335,-2836,87,-6335,2837.3,178.24,190.46,61,-565,-5071,305,-1330,-2433,34.1349756,-118.1457364,1.59,197.42,1.37,19,1,3,0,1,1
3555483,-3862,-915,-6335,-2836,87,-6335,2837.3,178.24,190.46,153,-674,-5226,119,-614,-2554,34.1349756,-118.1457364,1.59,197.42,1.37,19,1,3,0,1,1
3555493,-3862,-915,-6335,-2836,87,-6335,2837.3,178.24,190.46,224,-756,-5520,4,13,-2592,34.1349756,-118.1457364,1.59,197.42,1.37,19,1,3,0,1,1
3555503,-3862,-915,-6335,-2836,87,-6335,2837.3,178.24,190.46,299,-798,-6050,346,742,-2633,34.1349756,-118.1457364,1.59,197.42,1.37,19,1,3,0,1,1
3555513,-3862,-915,-6335,-2836,87,-6335,2837.3,178.24,190.46,296,-808,-6383,866,1089,-2738,34.1349756,-118.1457364,1.59,197.42,1.37,19,1,3,0,1,1
3555523,-3862,-915,-6335,-2836,87,-6335,2837.3,178.24,190.46,275,-862,-6671,1333,1436,-2925,34.1349756,-118.1457364,1.59,197.42,1.37,19,1,3,0,1,1
3555533,-3862,-915,-6335,-2836,87,-6335,2837.3,178.24,190.46,302,-960,-6960,1599,1755,-3117,34.1349756,-118.1457364,1.59,197.42,1.37,19,1,3,0,1,1
3555543,-3862,-915,-6335,-2836,87,-6335,2837.3,178.24,190.46,448,-1116,-7502,1423,1790,-3285,34.1349756,-118.1457364,1.59,197.42,1.37,19,1,3,0,1,1
3555553,-3862,-915,-6335,-2836,87,-6335,2837.3,178.24,190.46,541,-1192,-7876,1088,1317,-3283,34.1349756,-118.1457364,1.59,197.42,1.37,19,1,3,0,1,1
3555563,-3885,-805,-6325,-2859,197,-6325,2865.8,176.06,188.27,586,-1238,-8226,724,676,-3160,34.1349747,-118.1457368,1.83,199.26,1.37,19,1,3,0,1,1
3555573,-3885,-805,-6325,-2859,197,-6325,2865.8,176.06,188.27,597,-1200,-8538,261,51,-2899,34.1349747,-118.1457368,1.83,199.26,1.37,19,1,3,0,1,1
3555583,-3885,-805,-6325,-2859,197,-6325,2865.8,176.06,188.27,514,-955,-8946,-291,-658,-2435,34.1349747,-118.1457368,1.83,199.26,1.37,19,1,3,0,1,1
3555593,-3885,-805,-6325,-2859,197,-6325,2865.8,176.06,188.27,306,-767,-9240,-305,-811,-2201,34.1349747,-118.1457368,1.83,199.26,1.37,19,1,3,0,1,1
3555603,-3885,-805,-6325,-2859,197,-6325,2865.8,176.06,188.27,4,-665,-9494,10,-725,-2185,34.1349747,-118.1457368,1.83,199.26,1.37,19,1,3,0,1,1
3555613,-3885,-805,-6325,-2859,197,-6325,2865.8,176.06,188.27,-230,-662,-9641,477,-440,-2635,34.1349747,-118.1457368,1.83,199.26,1.37,19,1,3,0,1,1
3555623,-3885,-805,-6325,-2859,197,-6325,2865.8,176.06,188.27,-91,-713,-9814,429,375,-4046,34.1349747,-118.1457368,1.83,199.26,1.37,19,1,3,0,1,1
3555633,-3885,-805,-6325,-2859,197,-6325,2865.8,176.06,188.27,342,-838,-9944,-26,808,-5063,34.1349747,-118.1457368,1.83,199.26,1.37,19,1,3,0,1,1
3555643,-3885,-805,-6325,-2859,197,-6325,2865.8,176.06,188.27,877,-1166,-10095,-440,925,-5787,34.1349747,-118.1457368,1.83,199.26,1.37,19,1,3,0,1,1
3555653,-3885,-805,-6325,-2859,197,-6325,2865.8,176.06,188.27,1379,-1657,-10354,-1108,875,-5789,34.1349747,-118.1457368,1.83,199.26,1.37,19,1,3,0,1,1
3555663,-3847,-567,-6320,-2821,435,-6320,2854.3,171.23,183.45,1956,-2090,-11094,-2835,814,-4372,34.1349739,-118.1457369,1.76,193.54,1.37,19,1,3,0,1,1
3555673,-3847,-567,-6320,-2821,435,-6320,2854.3,171.23,183.45,2168,-1807,-11642,-3575,805,-2759,34.1349739,-118.1457369,1.76,193.54,1.37,19,1,3,0,1,1
3555683,-3847,-567,-6320,-2821,435,-6320,2854.3,171.23,183.45,2223,-1129,-11937,-3093,714,-1034,34.1349739,-118.1457369,1.76,193.54,1.37,19,1,3,0,1,1
3555693,-3847,-567,-6320,-2821,435,-6320,2854.3,171.23,183.45,1997,-391,-11892,-1383,631,311,34.1349739,-118.1457369,1.76,193.54,1.37,19,1,3,0,1,1
3555703,-3847,-567,-6320,-2821,435,-6320,2854.3,171.23,183.45,1169,157,-11241,2221,882,1110,34.1349739,-118.1457369,1.76,193.54,1.37,19,1,3,0,1,1
3555713,-3847,-567,-6320,-2821,435,-6320,2854.3,171.23,183.45,589,35,-10500,4297,968,1155,34.1349739,-118.1457369,1.76,193.54,1.37,19,1,3,0,1,1
3555723,-3847,-567,-6320,-2821,435,-6320,2854.3,171.23,183.45,171,-260,-9621,5342,439,1273,34.1349739,-118.1457369,1.76,193.54,1.37,19,1,3,0,1,1
3555733,-3847,-567,-6320,-2821,435,-6320,2854.3,171.23,183.45,-128,-514,-8733,5227,-713,1487,34.1349739,-118.1457369,1.76,193.54,1.37,19,1,3,0,1,1
3555743,-3847,-567,-6320,-2821,435,-6320,2854.3,171.23,183.45,-657,-782,-7516,3297,-2762,2015,34.1349739,-118.1457369,1.76,193.54,1.37,19,1,3,0,1,1
3555753,-3847,-567,-6320,-2821,435,-6320,2854.3,171.23,183.45,-1144,-893,-6917,1204,-3828,2551,34.1349739,-118.1457369,1.76,193.54,1.37,19,1,3,0,1,1
3555763,-3857,-680,-6212,-2831,322,-6212,2849.3,173.51,185.73,-1686,-839,-6556,-1000,-4158,3164,34.1349731,-118.1457371,1.90,185.79,1.37,19,1,3,0,1,1
3555773,-3857,-680,-6212,-2831,322,-6212,2849.3,173.51,185.73,-2186,-595,-6436,-2716,-3460,3836,34.1349731,-118.1457371,1.90,185.79,1.37,19,1,3,0,1,1
3555783,-3857,-680,-6212,-2831,322,-6212,2849.3,173.51,185.73,-2566,73,-6682,-3553,-770,4510,34.1349731,-118.1457371,1.90,185.79,1.37,19,1,3,0,1,1
3555793,-3857,-680,-6212,-2831,322,-6212,2849.3,173.51,185.73,-2450,707,-6986,-3181,1177,4311,34.1349731,-118.1457371,1.90,185.79,1.37,19,1,3,0,1,1
3555803,-3857,-680,-6212,-2831,322,-6212,2849.3,173.51,185.73,-2139,1285,-7296,-2573,2450,3573,34.1349731,-118.1457371,1.90,185.79,1.37,19,1,3,0,1,1
3555813,-3857,-680,-6212,-2831,322,-6212,2849.3,173.51,185.73,-1795,1604,-7482,-2004,2787,2452,34.1349731,-118.1457371,1.90,185.79,1.37,19,1,3,0,1,1
3555823,-3857,-680,-6212,-2831,322,-6212,2849.3,173.51,185.73,-1318,1682,-7327,-1209,2216,256,34.1349731,-118.1457371,1.90,185.79,1.37,19,1,3,0,1,1
3555833,-3857,-680,-6212,-2831,322,-6212,2849.3,173.51,185.73,-963,1520,-6927,-666,1625,-1326,34.1349731,-118.1457371,1.90,185.79,1.37,19,1,3,0,1,1
3555843,-3857,-680,-6212,-2831,322,-6212,2849.3,173.51,185.73,-628,1139,-6379,-160,1088,-2641,34.1349731,-118.1457371,1.90,185.79,1.37,19,1,3,0,1,1
3555853,-3857,-680,-6212,-2831,322,-6212,2849.3,173.51,185.73,-337,639,-5823,38,842,-3530,34.1349731,-118.1457371,1.90,185.79,1.37,19,1,3,0,1,1
3555863,-3885,-717,-6372,-2859,285,-6372,2873.2,174.31,186.52,144,47,-5180,-486,1124,-4129,34.1349725,-118.1457373,1.97,179.93,1.37,19,1,3,0,1,1
3555873,-3885,-717,-6372,-2859,285,-6372,2873.2,174.31,186.52,502,-206,-4932,-1103,1651,-4268,34.1349725,-118.1457373,1.97,179.93,1.37,19,1,3,0,1,1
3555883,-3885,-717,-6372,-2859,285,-6372,2873.2,174.31,186.52,805,-440,-4889,-1558,2276,-4240,34.1349725,-118.1457373,1.97,179.93,1.37,19,1,3,0,1,1
3555893,-3885,-717,-6372,-2859,285,-6372,2873.2,174.31,186.52,1037,-643,-5023,-1617,2794,-3995,34.1349725,-118.1457373,1.97,179.93,1.37,19,1,3,0,1,1
3555903,-3885,-717,-6372,-2859,285,-6372,2873.2,174.31,186.52,1352,-846,-5260,-1165,3066,-3392,34.1349725,-118.1457373,1.97,179.93,1.37,19,1,3,0,1,1
3555913,-3885,-717,-6372,-2859,285,-6372,2873.2,174.31,186.52,1531,-947,-5319,-832,2832,-2877,34.1349725,-118.1457373,1.97,179.93,1.37,19,1,3,0,1,1
3555923,-3885,-717,-6372,-2859,285,-6372,2873.2,174.31,186.52,1620,-1040,-5297,-576,2312,-2307,34.1349725,-118.1457373,1.97,179.93,1.37,19,1,3,0,1,1
3555933,-3885,-717,-6372,-2859,285,-6372,2873.2,174.31,186.52,1571,-1136,-5232,-399,1689,-1704,34.1349725,-118.1457373,1.97,179.93,1.37,19,1,3,0,1,1
3555943,-3885,-717,-6372,-2859,285,-6372,2873.2,174.31,186.52,1249,-1280,-5113,-343,917,-626,34.1349725,-118.1457373,1.97,179.93,1.37,19,1,3,0,1,1
3555953,-3885,-717,-6372,-2859,285,-6372,2873.2,174.31,186.52,938,-1329,-5075,-430,503,12,34.1349725,-118.1457373,1.97,179.93,1.37,19,1,3,0,1,1
3555963,-3820,-540,-6367,-2794,462,-6367,2831.9,170.61,182.83,639,-1283,-5075,-560,188,524,34.1349716,-118.1457374,1.70,184.42,1.37,19,1,3,0,1,1
3555973,-3820,-540,-6367,-2794,462,-6367,2831.9,170.61,182.83,394,-1153,-5088,-628,42,964,34.1349716,-118.1457374,1.70,184.42,1.37,19,1,3,0,1,1
3555983,-3820,-540,-6367,-2794,462,-6367,2831.9,170.61,182.83,95,-937,-5241,-693,-4,1386,34.1349716,-118.1457374,1.70,184.42,1.37,19,1,3,0,1,1
3555993,-3820,-540,-6367,-2794,462,-6367,2831.9,170.61,182.83,-38,-782,-5458,-824,-10,1587,34.1349716,-118.1457374,1.70,184.42,1.37,19,1,3,0,1,1
3556003,-3820,-540,-6367,-2794,462,-6367,2831.9,170.61,182.83,-107,-587,-5696,-899,-26,1679,34.1349716,-118.1457374,1.70,184.42,1.37,19,1,3,0,1,1
3556013,-3820,-540,-6367,-2794,462,-6367,2831.9,170.61,182.83,-162,-428,-5946,-797,-76,1622,34.1349716,-118.1457374,1.70,184.42,1.37,19,1,3,0,1,1
3556023,-3820,-540,-6367,-2794,462,-6367,2831.9,170.61,182.83,-265,-378,-6299,-351,-167,1466,34.1349716,-118.1457374,1.70,184.42,1.37,19,1,3,0,1,1
3556033,-3820,-540,-6367,-2794,462,-6367,2831.9,170.61,182.83,-306,-379,-6491,-17,-171,1527,34.1349716,-118.1457374,1.70,184.42,1.37,19,1,3,0,1,1
3556043,-3820,-540,-6367,-2794,462,-6367,2831.9,170.61,182.83,-321,-305,-6660,186,-196,1789,34.1349716,-118.1457374,1.70,184.42,1.37,19,1,3,0,1,1
3556053,-3820,-540,-6367,-2794,462,-6367,2831.9,170.61,182.83,-346,-158,-6909,2,-292,2066,34.1349716,-118.1457374,1.70,184.42,1.37,19,1,3,0,1,1
3556063,-3820,-540,-6367,-2794,462,-6367,2831.9,170.61,182.83,-421,14,-7163,-615,-373,1948,34.1349708,-118.1457376,1.80,184.04,1.37,19,1,3,0,1,1
3556073,-3767,-557,-6330,-2741,445,-6330,2776.9,170.78,182.99,-459,69,-7496,-1427,-537,1651,34.1349708,-118.1457376,1.80,184.04,1.37,19,1,3,0,1,1
3556083,-3767,-557,-6330,-2741,445,-6330,2776.9,170.78,182.99,-479,46,-7888,-2171,-720,1198,34.1349708,-118.1457376,1.80,184.04,1.37,19,1,3,0,1,1
3556093,-3767,-557,-6330,-2741,445,-6330,2776.9,170.78,182.99,-493,-93,-8338,-2741,-848,570,34.1349708,-118.1457376,1.80,184.04,1.37,19,1,3,0,1,1
3556103,-3767,-557,-6330,-2741,445,-6330,2776.9,170.78,182.99,-517,-474,-9122,-3309,-894,207,34.1349708,-118.1457376,1.80,184.04,1.37,19,1,3,0,1,1
3556113,-3767,-557,-6330,-2741,445,-6330,2776.9,170.78,182.99,-456,-834,-9677,-3507,-981,-261,34.1349708,-118.1457376,1.80,184.04,1.37,19,1,3,0,1,1
3556123,-3767,-557,-6330,-2741,445,-6330,2776.9,170.78,182.99,-292,-1322,-10114,-3284,-1141,-819,34.1349708,-118.1457376,1.80,184.04,1.37,19,1,3,0,1,1
3556133,-3767,-557,-6330,-2741,445,-6330,2776.9,170.78,182.99,-88,-1889,-10297,-2538,-1753,-1024,34.1349708,-118.1457376,1.80,184.04,1.37,19,1,3,0,1,1
3556143,-3767,-557,-6330,-2741,445,-6330,2776.9,170.78,182.99,157,-2500,-10159,-2814,-2341,-327,34.1349708,-118.1457376,1.80,184.04,1.37,19,1,3,0,1,1
3556153,-3767,-557,-6330,-2741,445,-6330,2776.9,170.78,182.99,247,-2498,-10055,-3842,-2645,607,34.1349708,-118.1457376,1.80,184.04,1.37,19,1,3,0,1,1
3556163,-3670,-732,-6530,-2644,270,-6530,2657.8,174.17,186.39,228,-2158,-10090,-4828,-2358,1461,34.1349708,-118.1457376,1.80,184.04,1.37,19,1,3,0,1,1
3556173,-3670,-732,-6530,-2644,270,-6530,2657.8,174.17,186.39,168,-1304,-10437,-5343,-1371,2568,34.1349708,-118.1457376,1.80,184.04,1.37,19,1,3,0,1,1
3556183,-3670,-732,-6530,-2644,270,-6530,2657.8,174.17,186.39,244,-670,-10815,-5308,-747,2969,34.1349708,-118.1457376,1.80,184.04,1.37,19,1,3,0,1,1
3556193,-3670,-732,-6530,-2644,270,-6530,2657.8,174.17,186.39,380,-117,-11195,-5100,-397,3071,34.1349708,-118.1457376,1.80,184.04,1.37,19,1,3,0,1,1
3556203,-3670,-732,-6530,-2644,270,-6530,2657.8,174.17,186.39,474,311,-11520,-4411,-264,3118,34.1349708,-118.1457376,1.80,184.04,1.37,19,1,3,0,1,1
3556213,-3670,-732,-6530,-2644,270,-6530,2657.8,174.17,186.39,608,919,-11705,-2126,-284,3270,34.1349708,-118.1457376,1.80,184.04,1.37,19,1,3,0,1,1
3556223,-3670,-732,-6530,-2644,270,-6530,2657.8,174.17,186.39,730,1264,-11524,-286,-560,3227,34.1349708,-118.1457376,1.80,184.04,1.37,19,1,3,0,1,1
3556233,-3670,-732,-6530,-2644,270,-6530,2657.8,174.17,186.39,804,1485,-11076,1227,-976,3095,34.1349708,-118.1457376,1.80,184.04,1.37,19,1,3,0,1,1
3556243,-3670,-732,-6530,-2644,270,-6530,2657.8,174.17,186.39,755,1583,-10411,2060,-1470,3060,34.1349708,-118.1457376,1.80,184.04,1.37,19,1,3,0,1,1
3556253,-3670,-732,-6530,-2644,270,-6530,2657.8,174.17,186.39,528,1629,-9279,2240,-2050,3019,34.1349708,-118.1457376,1.80,184.04,1.37,19,1,3,0,1,1
3556263,-3665,-992,-6520,-2639,10,-6520,2639.0,179.78,192.00,400,1708,-8520,2306,-1910,2720,34.1349689,-118.1457375,2.00,173.93,1.37,19,1,3,0,1,1
3556273,-3665,-992,-6520,-2639,10,-6520,2639.0,179.78,192.00,310,1725,-7794,2618,-1431,2230,34.1349689,-118.1457375,2.00,173.93,1.37,19,1,3,0,1,1
3556283,-3665,-992,-6520,-2639,10,-6520,2639.0,179.78,192.00,223,1518,-7140,3007,-975,1581,34.1349689,-118.1457375,2.00,173.93,1.37,19,1,3,0,1,1
3556293,-3665,-992,-6520,-2639,10,-6520,2639.0,179.78,192.00,97,789,-6326,3079,-375,359,34.1349689,-118.1457375,2.00,173.93,1.37,19,1,3,0,1,1
3556303,-3665,-992,-6520,-2639,10,-6520,2639.0,179.78,192.00,32,101,-5927,2613,16,-287,34.1349689,-118.1457375,2.00,173.93,1.37,19,1,3,0,1,1
3556313,-3665,-992,-6520,-2639,10,-6520,2639.0,179.78,192.00,-12,-616,-5677,1804,156,-661,34.1349689,-118.1457375,2.00,173.93,1.37,19,1,3,0,1,1
3556323,-3665,-992,-6520,-2639,10,-6520,2639.0,179.78,192.00,-37,-1217,-5562,727,-95,-747,34.1349689,-118.1457375,2.00,173.93,1.37,19,1,3,0,1,1
3556333,-3665,-992,-6520,-2639,10,-6520,2639.0,179.78,192.00,-57,-1713,-5516,-1155,-853,-234,34.1349689,-118.1457375,2.00,173.93,1.37,19,1,3,0,1,1
3556343,-3665,-992,-6520,-2639,10,-6520,2639.0,179.78,192.00,-101,-1781,-5584,-2233,-1177,359,34.1349689,-118.1457375,2.00,173.93,1.37,19,1,3,0,1,1
3556353,-3665,-992,-6520,-2639,10,-6520,2639.0,179.78,192.00,-183,-1703,-5754,-2836,-1172,985,34.1349689,-118.1457375,2.00,173.93,1.37,19,1,3,0,1,1
3556363,-3712,-1002,-6545,-2686,0,-6545,2686.0,180.00,192.22,-285,-1484,-5969,-2790,-961,1571,34.1349679,-118.1457373,2.00,164.77,1.37,19,1,3,0,1,1
3556373,-3712,-1002,-6545,-2686,0,-6545,2686.0,180.00,192.22,-432,-962,-6263,-1886,-660,2367,34.1349679,-118.1457373,2.00,164.77,1.37,19,1,3,0,1,1
3556383,-3712,-1002,-6545,-2686,0,-6545,2686.0,180.00,192.22,-504,-556,-6390,-1161,-568,2673,34.1349679,-118.1457373,2.00,164.77,1.37,19,1,3,0,1,1
3556393,-3712,-1002,-6545,-2686,0,-6545,2686.0,180.00,192.22,-568,-111,-6454,-495,-585,2691,34.1349679,-118.1457373,2.00,164.77,1.37,19,1,3,0,1,1
3556403,-3712,-1002,-6545,-2686,0,-6545,2686.0,180.00,192.22,-611,286,-6457,64,-679,2442,34.1349679,-118.1457373,2.00,164.77,1.37,19,1,3,0,1,1
3556413,-3712,-1002,-6545,-2686,0,-6545,2686.0,180.00,192.22,-573,563,-6343,556,-884,1604,34.1349679,-118.1457373,2.00,164.77,1.37,19,1,3,0,1,1
3556423,-3712,-1002,-6545,-2686,0,-6545,2686.0,180.00,192.22,-533,533,-6197,803,-1082,967,34.1349679,-118.1457373,2.00,164.77,1.37,19,1,3,0,1,1
3556433,-3712,-1002,-6545,-2686,0,-6545,2686.0,180.00,192.22,-514,411,-6028,952,-1406,479,34.1349679,-118.1457373,2.00,164.77,1.37,19,1,3,0,1,1
3556443,-3712,-1002,-6545,-2686,0,-6545,2686.0,180.00,192.22,-509,288,-5826,844,-1790,32,34.1349679,-118.1457373,2.00,164.77,1.37,19,1,3,0,1,1
3556453,-3712,-1002,-6545,-2686,0,-6545,2686.0,180.00,192.22,-531,179,-5460,561,-2103,-635,34.1349679,-118.1457373,2.00,164.77,1.37,19,1,3,0,1,1
3556463,-3762,-1117,-6482,-2736,-115,-6482,2738.4,182.41,194.62,-565,115,-5261,633,-1942,-1085,34.1349668,-118.1457373,1.86,166.49,1.37,19,1,3,0,1,1
3556473,-3762,-1117,-6482,-2736,-115,-6482,2738.4,182.41,194.62,-567,22,-5154,727,-1533,-1521,34.1349668,-118.1457373,1.86,166.49,1.37,19,1,3,0,1,1
3556483,-3762,-1117,-6482,-2736,-115,-6482,2738.4,182.41,194.62,-503,-78,-5102,693,-965,-1971,34.1349668,-118.1457373,1.86,166.49,1.37,19,1,3,0,1,1
3556493,-3762,-1117,-6482,-2736,-115,-6482,2738.4,182.41,194.62,-352,-267,-5110,444,-42,-2669,34.1349668,-118.1457373,1.86,166.49,1.37,19,1,3,0,1,1
3556503,-3762,-1117,-6482,-2736,-115,-6482,2738.4,182.41,194.62,-289,-487,-5196,322,600,-3043,34.1349668,-118.1457373,1.86,166.49,1.37,19,1,3,0,1,1
3556513,-3762,-1117,-6482,-2736,-115,-6482,2738.4,182.41,194.62,-268,-731,-5349,499,1306,-3329,34.1349668,-118.1457373,1.86,166.49,1.37,19,1,3,0,1,1
3556523,-3762,-1117,-6482,-2736,-115,-6482,2738.4,182.41,194.62,-204,-929,-5520,920,1997,-3594,34.1349668,-118.1457373,1.86,166.49,1.37,19,1,3,0,1,1
3556533,-3762,-1117,-6482,-2736,-115,-6482,2738.4,182.41,194.62,54,-1156,-5874,1338,2640,-3667,34.1349668,-118.1457373,1.86,166.49,1.37,19,1,3,0,1,1
3556543,-3762,-1117,-6482,-2736,-115,-6482,2738.4,182.41,194.62,295,-1238,-6255,1120,2684,-3588,34.1349668,-118.1457373,1.86,166.49,1.37,19,1,3,0,1,1
3556553,-3762,-1117,-6482,-2736,-115,-6482,2738.4,182.41,194.62,515,-1254,-6685,658,2447,-3460,34.1349668,-118.1457373,1.86,166.49,1.37,19,1,3,0,1,1
3556563,-3787,-900,-6445,-2761,102,-6445,2762.9,177.88,190.10,650,-1249,-7097,134,1957,-3159,34.1349658,-118.1457374,2.42,175.06,1.37,19,1,3,0,1,1
3556573,-3787,-900,-6445,-2761,102,-6445,2762.9,177.88,190.10,715,-1165,-7685,-739,1116,-2509,34.1349658,-118.1457374,2.42,175.06,1.37,19,1,3,0,1,1
3556583,-3787,-900,-6445,-2761,102,-6445,2762.9,177.88,190.10,672,-970,-8109,-1338,755,-1969,34.1349658,-118.1457374,2.42,175.06,1.37,19,1,3,0,1,1
3556593,-3787,-900,-6445,-2761,102,-6445,2762.9,177.88,190.10,549,-708,-8628,-1805,609,-1466,34.1349658,-118.1457374,2.42,175.06,1.37,19,1,3,0,1,1
3556603,-3787,-900,-6445,-2761,102,-6445,2762.9,177.88,190.10,320,-470,-9198,-1933,493,-1114,34.1349658,-118.1457374,2.42,175.06,1.37,19,1,3,0,1,1
3556613,-3787,-900,-6445,-2761,102,-6445,2762.9,177.88,190.10,-6,-232,-9927,-1581,322,-1195,34.1349658,-118.1457374,2.42,175.06,1.37,19,1,3,0,1,1
3556623,-3787,-900,-6445,-2761,102,-6445,2762.9,177.88,190.10,69,-74,-10291,-1217,381,-1823,34.1349658,-118.1457374,2.42,175.06,1.37,19,1,3,0,1,1
3556633,-3787,-900,-6445,-2761,102,-6445,2762.9,177.88,190.10,393,130,-10479,-891,348,-2649,34.1349658,-118.1457374,2.42,175.06,1.37,19,1,3,0,1,1
3556643,-3787,-900,-6445,-2761,102,-6445,2762.9,177.88,190.10,765,184,-10491,-774,119,-3307,34.1349658,-118.1457374,2.42,175.06,1.37,19,1,3,0,1,1
3556653,-3787,-900,-6445,-2761,102,-6445,2762.9,177.88,190.10,1115,-288,-10575,-1700,64,-3521,34.1349658,-118.1457374,2.42,175.06,1.37,19,1,3,0,1,1
3556663,-3750,-837,-6580,-2724,165,-6580,2729.0,176.53,188.75,1323,-553,-10934,-2990,350,-2973,34.1349652,-118.1457374,1.62,174.38,1.37,19,1,3,0,1,1
3556673,-3750,-837,-6580,-2724,165,-6580,2729.0,176.53,188.75,1583,-362,-11444,-3986,725,-1942,34.1349652,-118.1457374,1.62,174.38,1.37,19,1,3,0,1,1
3556683,-3750,-837,-6580,-2724,165,-6580,2729.0,176.53,188.75,1752,168,-11838,-4057,948,-743,34.1349652,-118.1457374,1.62,174.38,1.37,19,1,3,0,1,1
3556693,-3750,-837,-6580,-2724,165,-6580,2729.0,176.53,188.75,1461,980,-11886,-2255,758,671,34.1349652,-118.1457374,1.62,174.38,1.37,19,1,3,0,1,1
3556703,-3750,-837,-6580,-2724,165,-6580,2729.0,176.53,188.75,909,1295,-11458,-339,543,965,34.1349652,-118.1457374,1.62,174.38,1.37,19,1,3,0,1,1
3556713,-3750,-837,-6580,-2724,165,-6580,2729.0,176.53,188.75,225,1280,-10662,1551,395,741,34.1349652,-118.1457374,1.62,174.38,1.37,19,1,3,0,1,1
3556723,-3750,-837,-6580,-2724,165,-6580,2729.0,176.53,188.75,-373,967,-9680,2857,244,49,34.1349652,-118.1457374,1.62,174.38,1.37,19,1,3,0,1,1
3556733,-3750,-837,-6580,-2724,165,-6580,2729.0,176.53,188.75,-868,314,-8333,2883,-229,-330,34.1349652,-118.1457374,1.62,174.38,1.37,19,1,3,0,1,1
3556743,-3750,-837,-6580,-2724,165,-6580,2729.0,176.53,188.75,-1039,-176,-7644,1643,-1088,-478,34.1349652,-118.1457374,1.62,174.38,1.37,19,1,3,0,1,1
3556753,-3750,-837,-6580,-2724,165,-6580,2729.0,176.53,188.75,-1255,-608,-7125,-246,-2171,-286,34.1349652,-118.1457374,1.62,174.38,1.37,19,1,3,0,1,1
3556763,-3825,-852,-6545,-2799,150,-6545,2803.0,176.93,189.15,-1587,-827,-6755,-2219,-2908,490,34.1349644,-118.1457376,2.01,180.32,1.37,19,1,3,0,1,1
3556773,-3825,-852,-6545,-2799,150,-6545,2803.0,176.93,189.15,-2106,-692,-6453,-4115,-2387,1195,34.1349644,-118.1457376,2.01,180.32,1.37,19,1,3,0,1,1
3556783,-3825,-852,-6545,-2799,150,-6545,2803.0,176.93,189.15,-2291,-336,-6442,-4537,-983,1949,34.1349644,-118.1457376,2.01,180.32,1.37,19,1,3,0,1,1
3556793,-3825,-852,-6545,-2799,150,-6545,2803.0,176.93,189.15,-2267,197,-6626,-4622,682,2514,34.1349644,-118.1457376,2.01,180.32,1.37,19,1,3,0,1,1
3556803,-3825,-852,-6545,-2799,150,-6545,2803.0,176.93,189.15,-2061,778,-7247,-4644,2595,2613,34.1349644,-118.1457376,2.01,180.32,1.37,19,1,3,0,1,1
3556813,-3825,-852,-6545,-2799,150,-6545,2803.0,176.93,189.15,-1599,1442,-7629,-4692,2941,2421,34.1349644,-118.1457376,2.01,180.32,1.37,19,1,3,0,1,1
3556823,-3825,-852,-6545,-2799,150,-6545,2803.0,176.93,189.15,-1329,1743,-7914,-4587,2644,2102,34.1349644,-118.1457376,2.01,180.32,1.37,19,1,3,0,1,1
3556833,-3825,-852,-6545,-2799,150,-6545,2803.0,176.93,189.15,-1033,2092,-7958,-3972,2020,1431,34.1349644,-118.1457376,2.01,180.32,1.37,19,1,3,0,1,1
3556843,-3825,-852,-6545,-2799,150,-6545,2803.0,176.93,189.15,-693,2385,-7548,-2346,775,-350,34.1349644,-118.1457376,2.01,180.32,1.37,19,1,3,0,1,1
3556853,-3825,-852,-6545,-2799,150,-6545,2803.0,176.93,189.15,-368,2165,-7055,-1528,-30,-1552,34.1349644,-118.1457376,2.01,180.32,1.37,19,1,3,0,1,1
3556863,-3552,-832,-6612,-2526,170,-6612,2531.7,176.15,188.37,-276,1708,-6515,-1249,-422,-2452,34.1349636,-118.1457376,1.59,190.09,1.37,19,1,3,0,1,1
3556873,-3552,-832,-6612,-2526,170,-6612,2531.7,176.15,188.37,-158,1272,-6059,-1350,-252,-3021,34.1349636,-118.1457376,1.59,190.09,1.37,19,1,3,0,1,1
3556883,-3552,-832,-6612,-2526,170,-6612,2531.7,176.15,188.37,178,844,-5723,-1555,697,-3447,34.1349636,-118.1457376,1.59,190.09,1.37,19,1,3,0,1,1
3556893,-3552,-832,-6612,-2526,170,-6612,2531.7,176.15,188.37,427,619,-5696,-1286,1345,-3622,34.1349636,-118.1457376,1.59,190.09,1.37,19,1,3,0,1,1
3556903,-3552,-832,-6612,-2526,170,-6612,2531.7,176.15,188.37,614,328,-5721,-667,1779,-3702,34.1349636,-118.1457376,1.59,190.09,1.37,19,1,3,0,1,1
3556913,-3552,-832,-6612,-2526,170,-6612,2531.7,176.15,188.37,730,-16,-5769,-138,1983,-3581,34.1349636,-118.1457376,1.59,190.09,1.37,19,1,3,0,1,1
3556923,-3552,-832,-6612,-2526,170,-6612,2531.7,176.15,188.37,866,-414,-5912,14,2004,-2997,34.1349636,-118.1457376,1.59,190.09,1.37,19,1,3,0,1,1
3556933,-3552,-832,-6612,-2526,170,-6612,2531.7,176.15,188.37,928,-549,-5989,129,1829,-2552,34.1349636,-118.1457376,1.59,190.09,1.37,19,1,3,0,1,1
3556943,-3552,-832,-6612,-2526,170,-6612,2531.7,176.15,188.37,902,-626,-6011,640,1516,-2081,34.1349636,-118.1457376,1.59,190.09,1.37,19,1,3,0,1,1
3556953,-3552,-832,-6612,-2526,170,-6612,2531.7,176.15,188.37,798,-697,-5986,1297,1195,-1553,34.1349636,-118.1457376,1.59,190.09,1.37,19,1,3,0,1,1
3556963,-3622,-635,-6590,-2596,367,-6590,2621.8,171.95,184.17,592,-784,-5930,1684,1044,-877,34.1349628,-118.1457376,1.94,207.52,1.37,19,1,3,0,1,1
3556973,-3622,-635,-6590,-2596,367,-6590,2621.8,171.95,184.17,469,-815,-5944,1596,1044,-392,34.1349628,-118.1457376,1.94,207.52,1.37,19,1,3,0,1,1
3556983,-3622,-635,-6590,-2596,367,-6590,2621.8,171.95,184.17,362,-764,-6036,1458,949,132,34.1349628,-118.1457376,1.94,207.52,1.37,19,1,3,0,1,1
3556993,-3622,-635,-6590,-2596,367,-6590,2621.8,171.95,184.17,257,-606,-6180,1384,850,670,34.1349628,-118.1457376,1.94,207.52,1.37,19,1,3,0,1,1
3557003,-3622,-635,-6590,-2596,367,-6590,2621.8,171.95,184.17,100,-284,-6389,1656,824,1144,34.1349628,-118.1457376,1.94,207.52,1.37,19,1,3,0,1,1
3557013,-3622,-635,-6590,-2596,367,-6590,2621.8,171.95,184.17,17,-140,-6555,2048,852,1157,34.1349628,-118.1457376,1.94,207.52,1.37,19,1,3,0,1,1
3557023,-3622,-635,-6590,-2596,367,-6590,2621.8,171.95,184.17,-45,-108,-6718,2407,861,1108,34.1349628,-118.1457376,1.94,207.52,1.37,19,1,3,0,1,1
3557033,-3622,-635,-6590,-2596,367,-6590,2621.8,171.95,184.17,-58,-141,-6838,2585,734,1102,34.1349628,-118.1457376,1.94,207.52,1.37,19,1,3,0,1,1
3557043,-3622,-635,-6590,-2596,367,-6590,2621.8,171.95,184.17,-1,-169,-6990,2456,55,1230,34.1349628,-118.1457376,1.94,207.52,1.37,19,1,3,0,1,1
3557053,-3622,-635,-6590,-2596,367,-6590,2621.8,171.95,184.17,-5,-126,-7047,2201,-491,1468,34.1349628,-118.1457376,1.94,207.52,1.37,19,1,3,0,1,1
3557063,-3750,-650,-6515,-2724,352,-6515,2746.6,172.64,184.85,-93,-7,-7080,1857,-918,1816,34.1349621,-118.1457376,1.58,208.48,1.37,19,1,3,0,1,1
3557073,-3750,-650,-6515,-2724,352,-6515,2746.6,172.64,184.85,-219,204,-7120,1470,-1069,2027,34.1349621,-118.1457376,1.58,208.48,1.37,19,1,3,0,1,1
3557083,-3750,-650,-6515,-2724,352,-6515,2746.6,172.64,184.85,-357,499,-7280,1165,-755,1758,34.1349621,-118.1457376,1.58,208.48,1.37,19,1,3,0,1,1
3557093,-3750,-650,-6515,-2724,352,-6515,2746.6,172.64,184.85,-406,534,-7520,984,-477,1491,34.1349621,-118.1457376,1.58,208.48,1.37,19,1,3,0,1,1
3557103,-3750,-650,-6515,-2724,352,-6515,2746.6,172.64,184.85,-430,464,-7864,624,-278,1204,34.1349621,-118.1457376,1.58,208.48,1.37,19,1,3,0,1,1
3557113,-3750,-650,-6515,-2724,352,-6515,2746.6,172.64,184.85,-418,365,-8262,284,-142,832,34.1349621,-118.1457376,1.58,208.48,1.37,19,1,3,0,1,1
3557123,-3750,-650,-6515,-2724,352,-6515,2746.6,172.64,184.85,-350,73,-8869,25,-101,111,34.1349621,-118.1457376,1.58,208.48,1.37,19,1,3,0,1,1
3557133,-3750,-650,-6515,-2724,352,-6515,2746.6,172.64,184.85,-299,-366,-9170,215,-278,-412,34.1349621,-118.1457376,1.58,208.48,1.37,19,1,3,0,1,1
3557143,-3750,-650,-6515,-2724,352,-6515,2746.6,172.64,184.85,-234,-972,-9286,534,-554,-668,34.1349621,-118.1457376,1.58,208.48,1.37,19,1,3,0,1,1
3557153,-3750,-650,-6515,-2724,352,-6515,2746.6,172.64,184.85,-168,-1481,-9244,286,-992,-364,34.1349621,-118.1457376,1.58,208.48,1.37,19,1,3,0,1,1
3557163,-3707,-685,-6502,-2681,317,-6502,2699.7,173.26,185.47,-99,-1545,-9078,-1394,-1386,515,34.1349613,-118.1457376,0.99,192.90,1.37,19,1,3,0,1,1
3557173,-3707,-685,-6502,-2681,317,-6502,2699.7,173.26,185.47,-95,-1238,-9043,-2555,-927,849,34.1349613,-118.1457376,0.99,192.90,1.37,19,1,3,0,1,1
3557183,-3707,-685,-6502,-2681,317,-6502,2699.7,173.26,185.47,-60,-877,-9194,-3300,-64,986,34.1349613,-118.1457376,0.99,192.90,1.37,19,1,3,0,1,1
3557193,-3707,-685,-6502,-2681,317,-6502,2699.7,173.26,185.47,101,-524,-9577,-3570,796,1053,34.1349613,-118.1457376,0.99,192.90,1.37,19,1,3,0,1,1
3557203,-3707,-685,-6502,-2681,317,-6502,2699.7,173.26,185.47,637,-101,-10399,-3471,1383,914,34.1349613,-118.1457376,0.99,192.90,1.37,19,1,3,0,1,1
3557213,-3707,-685,-6502,-2681,317,-6502,2699.7,173.26,185.47,1059,73,-10832,-3152,1021,760,34.1349613,-118.1457376,0.99,192.90,1.37,19,1,3,0,1,1
3557223,-3707,-685,-6502,-2681,317,-6502,2699.7,173.26,185.47,1403,197,-11057,-2356,203,884,34.1349613,-118.1457376,0.99,192.90,1.37,19,1,3,0,1,1
3557233,-3707,-685,-6502,-2681,317,-6502,2699.7,173.26,185.47,1644,330,-11049,-1152,-717,1349,34.1349613,-118.1457376,0.99,192.90,1.37,19,1,3,0,1,1
3557243,-3707,-685,-6502,-2681,317,-6502,2699.7,173.26,185.47,1894,660,-10693,93,-1934,2168,34.1349613,-118.1457376,0.99,192.90,1.37,19,1,3,0,1,1
3557253,-3707,-685,-6502,-2681,317,-6502,2699.7,173.26,185.47,1927,990,-10310,351,-2478,2762,34.1349613,-118.1457376,0.99,192.90,1.37,19,1,3,0,1,1
3557263,-3655,-805,-6507,-2629,197,-6507,2636.4,175.71,187.93,1818,1346,-9913,615,-2601,3466,34.1349606,-118.1457377,1.06,192.23,1.37,19,1,3,0,1,1
3557273,-3655,-805,-6507,-2629,197,-6507,2636.4,175.71,187.93,1631,1673,-9532,1160,-2299,4078,34.1349606,-118.1457377,1.06,192.23,1.37,19,1,3,0,1,1
3557283,-3655,-805,-6507,-2629,197,-6507,2636.4,175.71,187.93,1325,1971,-8752,2522,-1913,4158,34.1349606,-118.1457377,1.06,192.23,1.37,19,1,3,0,1,1
3557293,-3655,-805,-6507,-2629,197,-6507,2636.4,175.71,187.93,1091,1935,-8000,3359,-1935,3552,34.1349606,-118.1457377,1.06,192.23,1.37,19,1,3,0,1,1
3557303,-3655,-805,-6507,-2629,197,-6507,2636.4,175.71,187.93,804,1612,-7205,3823,-1960,2705,34.1349606,-118.1457377,1.06,192.23,1.37,19,1,3,0,1,1
3557313,-3655,-805,-6507,-2629,197,-6507,2636.4,175.71,187.93,540,1044,-6476,3960,-1830,1802,34.1349606,-118.1457377,1.06,192.23,1.37,19,1,3,0,1,1
3557323,-3655,-805,-6507,-2629,197,-6507,2636.4,175.71,187.93,301,-50,-5554,3552,-1668,573,34.1349606,-118.1457377,1.06,192.23,1.37,19,1,3,0,1,1
3557333,-3655,-805,-6507,-2629,197,-6507,2636.4,175.71,187.93,216,-789,-5097,2675,-1772,52,34.1349606,-118.1457377,1.06,192.23,1.37,19,1,3,0,1,1
3557343,-3655,-805,-6507,-2629,197,-6507,2636.4,175.71,187.93,133,-1422,-4801,1362,-1984,-96,34.1349606,-118.1457377,1.06,192.23,1.37,19,1,3,0,1,1
3557353,-3655,-805,-6507,-2629,197,-6507,2636.4,175.71,187.93,57,-1900,-4668,-165,-2198,170,34.1349606,-118.1457377,1.06,192.23,1.37,19,1,3,0,1,1
3557363,-3827,-945,-6520,-2801,57,-6520,2801.6,178.83,191.05,15,-2271,-4755,-2210,-2038,1169,34.1349596,-118.1457373,0.82,183.01,1.37,19,1,3,0,1,1
3557373,-3827,-945,-6520,-2801,57,-6520,2801.6,178.83,191.05,31,-2190,-5018,-2935,-1529,2150,34.1349596,-118.1457373,0.82,183.01,1.37,19,1,3,0,1,1
3557383,-3827,-945,-6520,-2801,57,-6520,2801.6,178.83,191.05,41,-1847,-5403,-3023,-884,3248,34.1349596,-118.1457373,0.82,183.01,1.37,19,1,3,0,1,1
3557393,-3827,-945,-6520,-2801,57,-6520,2801.6,178.83,191.05,9,-1352,-5818,-2680,-336,4228,34.1349596,-118.1457373,0.82,183.01,1.37,19,1,3,0,1,1
3557403,-3827,-945,-6520,-2801,57,-6520,2801.6,178.83,191.05,-121,-539,-6344,-2019,-28,4981,34.1349596,-118.1457373,0.82,183.01,1.37,19,1,3,0,1,1
3557413,-3827,-945,-6520,-2801,57,-6520,2801.6,178.83,191.05,-221,-34,-6594,-1565,-59,5003,34.1349596,-118.1457373,0.82,183.01,1.37,19,1,3,0,1,1
3557423,-3827,-945,-6520,-2801,57,-6520,2801.6,178.83,191.05,-291,371,-6755,-939,-147,4685,34.1349596,-118.1457373,0.82,183.01,1.37,19,1,3,0,1,1
3557433,-3827,-945,-6520,-2801,57,-6520,2801.6,178.83,191.05,-337,614,-6818,0,-616,3868,34.1349596,-118.1457373,0.82,183.01,1.37,19,1,3,0,1,1
3557443,-3827,-945,-6520,-2801,57,-6520,2801.6,178.83,191.05,-441,689,-6678,1625,-1028,3281,34.1349596,-118.1457373,0.82,183.01,1.37,19,1,3,0,1,1
3557453,-3827,-945,-6520,-2801,57,-6520,2801.6,178.83,191.05,-545,597,-6416,2210,-1543,2631,34.1349596,-118.1457373,0.82,183.01,1.37,19,1,3,0,1,1
3557463,-3740,-1085,-6475,-2714,-83,-6475,2715.3,181.75,193.97,-632,449,-6023,2353,-1982,1910,34.1349587,-118.1457375,1.60,193.70,1.37,19,1,3,0,1,1
3557473,-3740,-1085,-6475,-2714,-83,-6475,2715.3,181.75,193.97,-739,254,-5467,2279,-2257,1103,34.1349587,-118.1457375,1.60,193.70,1.37,19,1,3,0,1,1
3557483,-3740,-1085,-6475,-2714,-83,-6475,2715.3,181.75,193.97,-988,-142,-5295,1717,-2220,869,34.1349587,-118.1457375,1.60,193.70,1.37,19,1,3,0,1,1
3557493,-3740,-1085,-6475,-2714,-83,-6475,2715.3,181.75,193.97,-1120,-316,-5282,653,-2106,594,34.1349587,-118.1457375,1.60,193.70,1.37,19,1,3,0,1,1
3557503,-3740,-1085,-6475,-2714,-83,-6475,2715.3,181.75,193.97,-1149,-297,-5379,-393,-1957,115,34.1349587,-118.1457375,1.60,193.70,1.37,19,1,3,0,1,1
3557513,-3740,-1085,-6475,-2714,-83,-6475,2715.3,181.75,193.97,-1121,-188,-5662,-799,-1455,-807,34.1349587,-118.1457375,1.60,193.70,1.37,19,1,3,0,1,1
3557523,-3740,-1085,-6475,-2714,-83,-6475,2715.3,181.75,193.97,-1086,-237,-5926,-495,-853,-1407,34.1349587,-118.1457375,1.60,193.70,1.37,19,1,3,0,1,1
3557533,-3740,-1085,-6475,-2714,-83,-6475,2715.3,181.75,193.97,-1053,-413,-6246,-155,-240,-1989,34.1349587,-118.1457375,1.60,193.70,1.37,19,1,3,0,1,1
3557543,-3740,-1085,-6475,-2714,-83,-6475,2715.3,181.75,193.97,-963,-538,-6580,176,197,-2516,34.1349587,-118.1457375,1.60,193.70,1.37,19,1,3,0,1,1
3557553,-3740,-1085,-6475,-2714,-83,-6475,2715.3,181.75,193.97,-809,-595,-7005,696,593,-3208,34.1349587,-118.1457375,1.60,193.70,1.37,19,1,3,0,1,1
3557563,-3875,-1152,-6525,-2849,-150,-6525,2852.9,183.01,195.23,-536,-673,-7282,1026,780,-3566,34.1349587,-118.1457375,1.60,193.70,1.37,19,1,3,0,1,1
3557573,-3875,-1152,-6525,-2849,-150,-6525,2852.9,183.01,195.23,-334,-798,-7581,1213,918,-3787,34.1349587,-118.1457375,1.60,193.70,1.37,19,1,3,0,1,1
3557583,-3875,-1152,-6525,-2849,-150,-6525,2852.9,183.01,195.23,-147,-900,-7899,1089,875,-3815,34.1349587,-118.1457375,1.60,193.70,1.37,19,1,3,0,1,1
3557593,-3875,-1152,-6525,-2849,-150,-6525,2852.9,183.01,195.23,23,-823,-8466,501,353,-3473,34.1349587,-118.1457375,1.60,193.70,1.37,19,1,3,0,1,1
3557603,-3875,-1152,-6525,-2849,-150,-6525,2852.9,183.01,195.23,69,-612,-8839,91,-79,-3271,34.1349587,-118.1457375,1.60,193.70,1.37,19,1,3,0,1,1
3557613,-3875,-1152,-6525,-2849,-150,-6525,2852.9,183.01,195.23,73,-370,-9167,-72,-388,-3198,34.1349587,-118.1457375,1.60,193.70,1.37,19,1,3,0,1,1
3557623,-3875,-1152,-6525,-2849,-150,-6525,2852.9,183.01,195.23,27,-196,-9473,96,-623,-3152,34.1349587,-118.1457375,1.60,193.70,1.37,19,1,3,0,1,1
3557633,-3875,-1152,-6525,-2849,-150,-6525,2852.9,183.01,195.23,-134,-224,-9792,737,-900,-3435,34.1349587,-118.1457375,1.60,193.70,1.37,19,1,3,0,1,1
3557643,-3875,-1152,-6525,-2849,-150,-6525,2852.9,183.01,195.23,-125,-367,-9862,1081,-879,-3916,34.1349587,-118.1457375,1.60,193.70,1.37,19,1,3,0,1,1
3557653,-3875,-1152,-6525,-2849,-150,-6525,2852.9,183.01,195.23,86,-470,-9857,1004,-744,-4302,34.1349587,-118.1457375,1.60,193.70,1.37,19,1,3,0,1,1
3557663,-3870,-1002,-6492,-2844,0,-6492,2844.0,180.00,192.22,337,-549,-9776,666,-741,-4526,34.1349575,-118.1457381,1.67,201.02,1.37,19,1,3,0,1,1
3557673,-3870,-1002,-6492,-2844,0,-6492,2844.0,180.00,192.22,461,-797,-9612,317,-702,-4404,34.1349575,-118.1457381,1.67,201.02,1.37,19,1,3,0,1,1
3557683,-3870,-1002,-6492,-2844,0,-6492,2844.0,180.00,192.22,455,-961,-9599,-53,-217,-3929,34.1349575,-118.1457381,1.67,201.02,1.37,19,1,3,0,1,1
3557693,-3870,-1002,-6492,-2844,0,-6492,2844.0,180.00,192.22,525,-946,-9743,-621,645,-3161,34.1349575,-118.1457381,1.67,201.02,1.37,19,1,3,0,1,1
3557703,-3870,-1002,-6492,-2844,0,-6492,2844.0,180.00,192.22,704,-636,-10054,-1142,1579,-2192,34.1349575,-118.1457381,1.67,201.02,1.37,19,1,3,0,1,1
3557713,-3870,-1002,-6492,-2844,0,-6492,2844.0,180.00,192.22,1020,206,-10670,-1257,2546,-815,34.1349575,-118.1457381,1.67,201.02,1.37,19,1,3,0,1,1
3557723,-3870,-1002,-6492,-2844,0,-6492,2844.0,180.00,192.22,1100,677,-10943,-542,2675,-188,34.1349575,-118.1457381,1.67,201.02,1.37,19,1,3,0,1,1
3557733,-3870,-1002,-6492,-2844,0,-6492,2844.0,180.00,192.22,1055,882,-10916,771,2388,38,34.1349575,-118.1457381,1.67,201.02,1.37,19,1,3,0,1,1
3557743,-3870,-1002,-6492,-2844,0,-6492,2844.0,180.00,192.22,941,824,-10547,2120,1776,60,34.1349575,-118.1457381,1.67,201.02,1.37,19,1,3,0,1,1
3557753,-3870,-1002,-6492,-2844,0,-6492,2844.0,180.00,192.22,654,371,-9440,2731,27,308,34.1349575,-118.1457381,1.67,201.02,1.37,19,1,3,0,1,1
3557763,-3917,-862,-6445,-2891,140,-6445,2894.4,177.23,189.44,290,1,-8582,2003,-1259,665,34.1349567,-118.1457376,1.27,183.28,1.37,19,1,3,0,1,1
3557773,-3917,-862,-6445,-2891,140,-6445,2894.4,177.23,189.44,-209,-246,-7831,913,-2064,1229,34.1349567,-118.1457376,1.27,183.28,1.37,19,1,3,0,1,1
3557783,-3917,-862,-6445,-2891,140,-6445,2894.4,177.23,189.44,-750,-352,-7249,-237,-2292,1959,34.1349567,-118.1457376,1.27,183.28,1.37,19,1,3,0,1,1
3557793,-3917,-862,-6445,-2891,140,-6445,2894.4,177.23,189.44,-1438,-262,-6824,-2368,-1343,2931,34.1349567,-118.1457376,1.27,183.28,1.37,19,1,3,0,1,1
3557803,-3917,-862,-6445,-2891,140,-6445,2894.4,177.23,189.44,-1710,-10,-6865,-3552,39,3303,34.1349567,-118.1457376,1.27,183.28,1.37,19,1,3,0,1,1
3557813,-3917,-862,-6445,-2891,140,-6445,2894.4,177.23,189.44,-1761,367,-7154,-3994,1587,3418,34.1349567,-118.1457376,1.27,183.28,1.37,19,1,3,0,1,1
3557823,-3917,-862,-6445,-2891,140,-6445,2894.4,177.23,189.44,-1573,789,-7539,-3726,2835,3285,34.1349567,-118.1457376,1.27,183.28,1.37,19,1,3,0,1,1
3557833,-3917,-862,-6445,-2891,140,-6445,2894.4,177.23,189.44,-1123,1257,-7831,-2746,3370,2520,34.1349567,-118.1457376,1.27,183.28,1.37,19,1,3,0,1,1
3557843,-3917,-862,-6445,-2891,140,-6445,2894.4,177.23,189.44,-885,1398,-7751,-2070,3070,1679,34.1349567,-118.1457376,1.27,183.28,1.37,19,1,3,0,1,1
3557853,-3917,-862,-6445,-2891,140,-6445,2894.4,177.23,189.44,-705,1433,-7487,-1447,2621,759,34.1349567,-118.1457376,1.27,183.28,1.37,19,1,3,0,1,1
3557863,-3870,-867,-6510,-2844,135,-6510,2847.2,177.28,189.50,-558,1314,-7108,-951,2113,-140,34.1349562,-118.1457377,0.89,192.64,1.37,19,1,3,0,1,1
3557873,-3870,-867,-6510,-2844,135,-6510,2847.2,177.28,189.50,-295,918,-6481,-688,1579,-1279,34.1349562,-118.1457377,0.89,192.64,1.37,19,1,3,0,1,1
3557883,-3870,-867,-6510,-2844,135,-6510,2847.2,177.28,189.50,-67,671,-6081,-767,1483,-1825,34.1349562,-118.1457377,0.89,192.64,1.37,19,1,3,0,1,1
3557893,-3870,-867,-6510,-2844,135,-6510,2847.2,177.28,189.50,174,488,-5752,-869,1460,-2211,34.1349562,-118.1457377,0.89,192.64,1.37,19,1,3,0,1,1
3557903,-3870,-867,-6510,-2844,135,-6510,2847.2,177.28,189.50,393,340,-5498,-873,1464,-2461,34.1349562,-118.1457377,0.89,192.64,1.37,19,1,3,0,1,1
3557913,-3870,-867,-6510,-2844,135,-6510,2847.2,177.28,189.50,647,70,-5255,-690,1817,-2671,34.1349562,-118.1457377,0.89,192.64,1.37,19,1,3,0,1,1
3557923,-3870,-867,-6510,-2844,135,-6510,2847.2,177.28,189.50,801,-173,-5175,-464,2250,-2700,34.1349562,-118.1457377,0.89,192.64,1.37,19,1,3,0,1,1
3557933,-3870,-867,-6510,-2844,135,-6510,2847.2,177.28,189.50,963,-409,-5185,-167,2579,-2488,34.1349562,-118.1457377,0.89,192.64,1.37,19,1,3,0,1,1
3557943,-3870,-867,-6510,-2844,135,-6510,2847.2,177.28,189.50,1144,-597,-5242,99,2694,-2018,34.1349562,-118.1457377,0.89,192.64,1.37,19,1,3,0,1,1
3557953,-3870,-867,-6510,-2844,135,-6510,2847.2,177.28,189.50,1330,-912,-5261,-33,2221,-973,34.1349562,-118.1457377,0.89,192.64,1.37,19,1,3,0,1,1
3557963,-3922,-675,-6557,-2896,327,-6557,2914.4,173.56,185.77,1254,-1081,-5258,-441,1630,-175,34.1349555,-118.1457380,0.87,203.96,1.37,19,1,3,0,1,1
3557973,-3922,-675,-6557,-2896,327,-6557,2914.4,173.56,185.77,1010,-1078,-5269,-641,1087,701,34.1349555,-118.1457380,0.87,203.96,1.37,19,1,3,0,1,1
3557983,-3922,-675,-6557,-2896,327,-6557,2914.4,173.56,185.77,696,-921,-5310,-519,863,1537,34.1349555,-118.1457380,0.87,203.96,1.37,19,1,3,0,1,1
3557993,-3922,-675,-6557,-2896,327,-6557,2914.4,173.56,185.77,279,-638,-5518,-393,1027,2307,34.1349555,-118.1457380,0.87,203.96,1.37,19,1,3,0,1,1
3558003,-3922,-675,-6557,-2896,327,-6557,2914.4,173.56,185.77,76,-464,-5740,-437,1089,2486,34.1349555,-118.1457380,0.87,203.96,1.37,19,1,3,0,1,1
3558013,-3922,-675,-6557,-2896,327,-6557,2914.4,173.56,185.77,-120,-278,-5971,-300,1020,2564,34.1349555,-118.1457380,0.87,203.96,1.37,19,1,3,0,1,1
3558023,-3922,-675,-6557,-2896,327,-6557,2914.4,173.56,185.77,-330,-125,-6198,102,858,2602,34.1349555,-118.1457380,0.87,203.96,1.37,19,1,3,0,1,1
3558033,-3922,-675,-6557,-2896,327,-6557,2914.4,173.56,185.77,-584,15,-6474,848,491,2494,34.1349555,-118.1457380,0.87,203.96,1.37,19,1,3,0,1,1
3558044,-3922,-675,-6557,-2896,327,-6557,2914.4,173.56,185.77,-706,94,-6578,1126,90,2349,34.1349555,-118.1457380,0.87,203.96,1.37,19,1,3,0,1,1
3558053,-3922,-675,-6557,-2896,327,-6557,2914.4,173.56,185.77,-822,148,-6615,1225,-322,2176,34.1349555,-118.1457380,0.87,203.96,1.37,19,1,3,0,1,1
3558063,-3815,-727,-6475,-2789,275,-6475,2802.5,174.37,186.58,-1006,109,-6659,1156,-677,1896,34.1349545,-118.1457385,1.53,215.27,1.37,19,1,3,0,1,1
3558073,-3815,-727,-6475,-2789,275,-6475,2802.5,174.37,186.58,-1117,96,-6723,907,-808,1865,34.1349545,-118.1457385,1.53,215.27,1.37,19,1,3,0,1,1
3558083,-3815,-727,-6475,-2789,275,-6475,2802.5,174.37,186.58,-1178,170,-6837,510,-866,1838,34.1349545,-118.1457385,1.53,215.27,1.37,19,1,3,0,1,1
3558093,-3815,-727,-6475,-2789,275,-6475,2802.5,174.37,186.58,-1190,298,-7089,-20,-796,1679,34.1349545,-118.1457385,1.53,215.27,1.37,19,1,3,0,1,1
3558103,-3815,-727,-6475,-2789,275,-6475,2802.5,174.37,186.58,-1177,411,-7467,-544,-651,1341,34.1349545,-118.1457385,1.53,215.27,1.37,19,1,3,0,1,1
3558113,-3815,-727,-6475,-2789,275,-6475,2802.5,174.37,186.58,-1098,441,-8173,-1048,-511,710,34.1349545,-118.1457385,1.53,215.27,1.37,19,1,3,0,1,1
3558123,-3815,-727,-6475,-2789,275,-6475,2802.5,174.37,186.58,-965,352,-8722,-1221,-443,341,34.1349545,-118.1457385,1.53,215.27,1.37,19,1,3,0,1,1
3558133,-3815,-727,-6475,-2789,275,-6475,2802.5,174.37,186.58,-759,199,-9281,-1210,-449,18,34.1349545,-118.1457385,1.53,215.27,1.37,19,1,3,0,1,1
3558143,-3815,-727,-6475,-2789,275,-6475,2802.5,174.37,186.58,-568,4,-9776,-878,-576,-615,34.1349545,-118.1457385,1.53,215.27,1.37,19,1,3,0,1,1
3558153,-3815,-727,-6475,-2789,275,-6475,2802.5,174.37,186.58,-356,-498,-10328,135,-580,-1270,34.1349545,-118.1457385,1.53,215.27,1.37,19,1,3,0,1,1
3558163,-3912,-755,-6510,-2886,247,-6510,2896.6,175.11,187.32,-71,-994,-10471,1126,-405,-1847,34.1349538,-118.1457386,1.34,203.52,1.37,19,1,3,0,1,1
3558173,-3912,-755,-6510,-2886,247,-6510,2896.6,175.11,187.32,362,-1472,-10334,2065,-420,-1870,34.1349538,-118.1457386,1.34,203.52,1.37,19,1,3,0,1,1
3558183,-3912,-755,-6510,-2886,247,-6510,2896.6,175.11,187.32,776,-1775,-9785,1901,-990,-819,34.1349538,-118.1457386,1.34,203.52,1.37,19,1,3,0,1,1
3558193,-3912,-755,-6510,-2886,247,-6510,2896.6,175.11,187.32,1066,-1681,-9416,825,-1290,9,34.1349538,-118.1457386,1.34,203.52,1.37,19,1,3,0,1,1
3558203,-3912,-755,-6510,-2886,247,-6510,2896.6,175.11,187.32,1019,-1457,-9168,-254,-1189,867,34.1349538,-118.1457386,1.34,203.52,1.37,19,1,3,0,1,1
3558213,-3912,-755,-6510,-2886,247,-6510,2896.6,175.11,187.32,896,-1134,-9113,-1013,-655,1819,34.1349538,-118.1457386,1.34,203.52,1.37,19,1,3,0,1,1
3558223,-3912,-755,-6510,-2886,247,-6510,2896.6,175.11,187.32,790,-670,-9465,-1877,422,3050,34.1349538,-118.1457386,1.34,203.52,1.37,19,1,3,0,1,1
3558233,-3912,-755,-6510,-2886,247,-6510,2896.6,175.11,187.32,775,292,-9822,-1972,905,3335,34.1349538,-118.1457386,1.34,203.52,1.37,19,1,3,0,1,1
3558243,-3912,-755,-6510,-2886,247,-6510,2896.6,175.11,187.32,821,849,-10044,-1357,1053,3151,34.1349538,-118.1457386,1.34,203.52,1.37,19,1,3,0,1,1
3558253,-3912,-755,-6510,-2886,247,-6510,2896.6,175.11,187.32,865,1132,-10062,-357,905,2716,34.1349538,-118.1457386,1.34,203.52,1.37,19,1,3,0,1,1
3558263,-3912,-800,-6545,-2886,202,-6545,2893.1,176.00,188.21,934,1199,-9734,956,235,1899,34.1349532,-118.1457390,1.46,194.15,1.37,19,1,3,0,1,1
3558273,-3912,-800,-6545,-2886,202,-6545,2893.1,176.00,188.21,1100,1139,-9257,1380,-465,1567,34.1349532,-118.1457390,1.46,194.15,1.37,19,1,3,0,1,1
3558283,-3912,-800,-6545,-2886,202,-6545,2893.1,176.00,188.21,1155,1068,-8616,1349,-963,1492,34.1349532,-118.1457390,1.46,194.15,1.37,19,1,3,0,1,1
3558293,-3912,-800,-6545,-2886,202,-6545,2893.1,176.00,188.21,1109,1016,-7961,946,-943,1598,34.1349532,-118.1457390,1.46,194.15,1.37,19,1,3,0,1,1
3558303,-3912,-800,-6545,-2886,202,-6545,2893.1,176.00,188.21,925,970,-7162,403,-110,1711,34.1349532,-118.1457390,1.46,194.15,1.37,19,1,3,0,1,1
3558313,-3912,-800,-6545,-2886,202,-6545,2893.1,176.00,188.21,757,849,-6793,394,647,1544,34.1349532,-118.1457390,1.46,194.15,1.37,19,1,3,0,1,1
3558323,-3912,-800,-6545,-2886,202,-6545,2893.1,176.00,188.21,552,537,-6541,391,1248,1170,34.1349532,-118.1457390,1.46,194.15,1.37,19,1,3,0,1,1
3558333,-3912,-800,-6545,-2886,202,-6545,2893.1,176.00,188.21,342,54,-6332,159,1484,688,34.1349532,-118.1457390,1.46,194.15,1.37,19,1,3,0,1,1
3558343,-3912,-800,-6545,-2886,202,-6545,2893.1,176.00,188.21,69,-803,-6106,-659,1135,50,34.1349532,-118.1457390,1.46,194.15,1.37,19,1,3,0,1,1
3558353,-3912,-800,-6545,-2886,202,-6545,2893.1,176.00,188.21,-87,-1366,-6083,-1452,523,-83,34.1349532,-118.1457390,1.46,194.15,1.37,19,1,3,0,1,1
3558363,-3950,-852,-6502,-2924,150,-6502,2927.8,177.06,189.28,-203,-1790,-6135,-2432,-281,91,34.1349526,-118.1457392,0.90,183.50,1.37,19,1,3,0,1,1
3558373,-3950,-852,-6502,-2924,150,-6502,2927.8,177.06,189.28,-283,-1953,-6193,-3448,-1118,527,34.1349526,-118.1457392,0.90,183.50,1.37,19,1,3,0,1,1
3558383,-3950,-852,-6502,-2924,150,-6502,2927.8,177.06,189.28,-493,-1794,-6226,-4154,-1856,1387,34.1349526,-118.1457392,0.90,183.50,1.37,19,1,3,0,1,1
3558393,-3950,-852,-6502,-2924,150,-6502,2927.8,177.06,189.28,-689,-1509,-6231,-3786,-1708,1961,34.1349526,-118.1457392,0.90,183.50,1.37,19,1,3,0,1,1
3558403,-3950,-852,-6502,-2924,150,-6502,2927.8,177.06,189.28,-865,-1144,-6261,-3094,-1217,2363,34.1349526,-118.1457392,0.90,183.50,1.37,19,1,3,0,1,1
3558413,-3950,-852,-6502,-2924,150,-6502,2927.8,177.06,189.28,-976,-784,-6337,-2479,-691,2465,34.1349526,-118.1457392,0.90,183.50,1.37,19,1,3,0,1,1
3558423,-3950,-852,-6502,-2924,150,-6502,2927.8,177.06,189.28,-982,-315,-6541,-1901,-304,2239,34.1349526,-118.1457392,0.90,183.50,1.37,19,1,3,0,1,1
3558433,-3950,-852,-6502,-2924,150,-6502,2927.8,177.06,189.28,-919,-47,-6679,-1626,-433,1877,34.1349526,-118.1457392,0.90,183.50,1.37,19,1,3,0,1,1
3558443,-3950,-852,-6502,-2924,150,-6502,2927.8,177.06,189.28,-849,186,-6722,-1233,-757,1295,34.1349526,-118.1457392,0.90,183.50,1.37,19,1,3,0,1,1
3558453,-3950,-852,-6502,-2924,150,-6502,2927.8,177.06,189.28,-784,325,-6665,-656,-1160,599,34.1349526,-118.1457392,0.90,183.50,1.37,19,1,3,0,1,1
3558463,-3865,-945,-6557,-2839,57,-6557,2839.6,178.85,191.07,-657,317,-6456,142,-1689,-338,34.1349522,-118.1457395,0.94,0.00,1.37,19,1,3,0,1,1
3558473,-3865,-945,-6557,-2839,57,-6557,2839.6,178.85,191.07,-550,249,-6289,269,-2030,-931,34.1349522,-118.1457395,0.94,0.00,1.37,19,1,3,0,1,1
3558483,-3865,-945,-6557,-2839,57,-6557,2839.6,178.85,191.07,-429,157,-6107,224,-2376,-1523,34.1349522,-118.1457395,0.94,0.00,1.37,19,1,3,0,1,1
3558493,-3865,-945,-6557,-2839,57,-6557,2839.6,178.85,191.07,-316,22,-5882,385,-2629,-2004,34.1349522,-118.1457395,0.94,0.00,1.37,19,1,3,0,1,1
3558503,-3865,-945,-6557,-2839,57,-6557,2839.6,178.85,191.07,-227,-313,-5496,925,-2386,-2381,34.1349522,-118.1457395,0.94,0.00,1.37,19,1,3,0,1,1
3558513,-3865,-945,-6557,-2839,57,-6557,2839.6,178.85,191.07,-223,-512,-5262,1074,-1849,-2431,34.1349522,-118.1457395,0.94,0.00,1.37,19,1,3,0,1,1
3558523,-3865,-945,-6557,-2839,57,-6557,2839.6,178.85,191.07,-253,-622,-5191,840,-1091,-2441,34.1349522,-118.1457395,0.94,0.00,1.37,19,1,3,0,1,1
3558533,-3865,-945,-6557,-2839,57,-6557,2839.6,178.85,191.07,-260,-704,-5402,317,-219,-2538,34.1349522,-118.1457395,0.94,0.00,1.37,19,1,3,0,1,1
3558543,-3865,-945,-6557,-2839,57,-6557,2839.6,178.85,191.07,-70,-752,-6125,-109,1022,-2714,34.1349522,-118.1457395,0.94,0.00,1.37,19,1,3,0,1,1
3558553,-3865,-945,-6557,-2839,57,-6557,2839.6,178.85,191.07,146,-707,-6662,344,1537,-2783,34.1349522,-118.1457395,0.94,0.00,1.37,19,1,3,0,1,1
3558563,-3940,-785,-6502,-2914,217,-6502,2922.1,175.74,187.96,312,-653,-7039,1242,1641,-2924,34.1349518,-118.1457388,1.01,0.00,1.37,19,1,3,0,1,1
3558573,-3940,-785,-6502,-2914,217,-6502,2922.1,175.74,187.96,380,-630,-7240,2123,1665,-3199,34.1349518,-118.1457388,1.01,0.00,1.37,19,1,3,0,1,1
3558583,-3940,-785,-6502,-2914,217,-6502,2922.1,175.74,187.96,408,-758,-7506,2493,1764,-3568,34.1349518,-118.1457388,1.01,0.00,1.37,19,1,3,0,1,1
3558593,-3940,-785,-6502,-2914,217,-6502,2922.1,175.74,187.96,475,-885,-7808,2194,1645,-3625,34.1349518,-118.1457388,1.01,0.00,1.37,19,1,3,0,1,1
3558603,-3940,-785,-6502,-2914,217,-6502,2922.1,175.74,187.96,633,-903,-8150,1712,1154,-3506,34.1349518,-118.1457388,1.01,0.00,1.37,19,1,3,0,1,1
3558613,-3940,-785,-6502,-2914,217,-6502,2922.1,175.74,187.96,827,-757,-8376,1167,288,-3354,34.1349518,-118.1457388,1.01,0.00,1.37,19,1,3,0,1,1
3558623,-3940,-785,-6502,-2914,217,-6502,2922.1,175.74,187.96,901,-427,-8453,295,-1087,-3153,34.1349518,-118.1457388,1.01,0.00,1.37,19,1,3,0,1,1
3558633,-3940,-785,-6502,-2914,217,-6502,2922.1,175.74,187.96,713,-329,-8515,-231,-1497,-2977,34.1349518,-118.1457388,1.01,0.00,1.37,19,1,3,0,1,1
3558643,-3940,-785,-6502,-2914,217,-6502,2922.1,175.74,187.96,389,-334,-8661,-445,-1323,-2832,34.1349518,-118.1457388,1.01,0.00,1.37,19,1,3,0,1,1
3558653,-3940,-785,-6502,-2914,217,-6502,2922.1,175.74,187.96,120,-341,-8828,-164,-698,-2886,34.1349518,-118.1457388,1.01,0.00,1.37,19,1,3,0,1,1
3558663,-3902,-680,-6417,-2876,322,-6417,2894.0,173.61,185.83,295,-211,-9037,583,653,-3709,34.1349512,-118.1457379,1.24,166.00,1.37,19,1,3,0,1,1
3558673,-3902,-680,-6417,-2876,322,-6417,2894.0,173.61,185.83,795,-180,-9175,445,1171,-4513,34.1349512,-118.1457379,1.24,166.00,1.37,19,1,3,0,1,1
3558683,-3902,-680,-6417,-2876,322,-6417,2894.0,173.61,185.83,1337,-430,-9327,-94,1023,-5204,34.1349512,-118.1457379,1.24,166.00,1.37,19,1,3,0,1,1
3558693,-3902,-680,-6417,-2876,322,-6417,2894.0,173.61,185.83,1724,-956,-9491,-650,618,-5483,34.1349512,-118.1457379,1.24,166.00,1.37,19,1,3,0,1,1
3558703,-3902,-680,-6417,-2876,322,-6417,2894.0,173.61,185.83,2153,-1697,-9864,-1989,275,-4583,34.1349512,-118.1457379,1.24,166.00,1.37,19,1,3,0,1,1
3558713,-3902,-680,-6417,-2876,322,-6417,2894.0,173.61,185.83,2520,-1709,-10256,-3180,207,-3196,34.1349512,-118.1457379,1.24,166.00,1.37,19,1,3,0,1,1
3558723,-3902,-680,-6417,-2876,322,-6417,2894.0,173.61,185.83,2816,-1279,-10704,-4067,52,-1403,34.1349512,-118.1457379,1.24,166.00,1.37,19,1,3,0,1,1
3558733,-3902,-680,-6417,-2876,322,-6417,2894.0,173.61,185.83,2801,-573,-11076,-4259,-238,477,34.1349512,-118.1457379,1.24,166.00,1.37,19,1,3,0,1,1
3558743,-3902,-680,-6417,-2876,322,-6417,2894.0,173.61,185.83,2192,563,-11246,-2995,-354,2298,34.1349512,-118.1457379,1.24,166.00,1.37,19,1,3,0,1,1
3558753,-3902,-680,-6417,-2876,322,-6417,2894.0,173.61,185.83,1619,1001,-11000,-970,138,2423,34.1349512,-118.1457379,1.24,166.00,1.37,19,1,3,0,1,1
3558763,-3907,-607,-6442,-2881,395,-6442,2908.0,172.19,184.41,1017,968,-10452,1664,612,2299,34.1349505,-118.1457377,1.86,176.50,1.37,19,1,3,0,1,1
3558773,-3907,-607,-6442,-2881,395,-6442,2908.0,172.19,184.41,468,568,-9656,3640,535,2418,34.1349505,-118.1457377,1.86,176.50,1.37,19,1,3,0,1,1
3558783,-3907,-607,-6442,-2881,395,-6442,2908.0,172.19,184.41,-206,-7,-8310,3651,-630,2626,34.1349505,-118.1457377,1.86,176.50,1.37,19,1,3,0,1,1
3558793,-3907,-607,-6442,-2881,395,-6442,2908.0,172.19,184.41,-704,-249,-7482,2295,-1647,2701,34.1349505,-118.1457377,1.86,176.50,1.37,19,1,3,0,1,1
3558803,-3907,-607,-6442,-2881,395,-6442,2908.0,172.19,184.41,-1295,-501,-6871,394,-2439,3008,34.1349505,-118.1457377,1.86,176.50,1.37,19,1,3,0,1,1
3558813,-3907,-607,-6442,-2881,395,-6442,2908.0,172.19,184.41,-1887,-664,-6549,-1709,-2397,3827,34.1349505,-118.1457377,1.86,176.50,1.37,19,1,3,0,1,1
3558823,-3907,-607,-6442,-2881,395,-6442,2908.0,172.19,184.41,-2445,-349,-6478,-4364,-1685,4392,34.1349505,-118.1457377,1.86,176.50,1.37,19,1,3,0,1,1
3558833,-3907,-607,-6442,-2881,395,-6442,2908.0,172.19,184.41,-2452,234,-6641,-5274,-535,4709,34.1349505,-118.1457377,1.86,176.50,1.37,19,1,3,0,1,1
3558843,-3907,-607,-6442,-2881,395,-6442,2908.0,172.19,184.41,-2265,935,-6930,-5352,541,4586,34.1349505,-118.1457377,1.86,176.50,1.37,19,1,3,0,1,1
3558853,-3907,-607,-6442,-2881,395,-6442,2908.0,172.19,184.41,-2030,1501,-7243,-4962,1485,3658,34.1349505,-118.1457377,1.86,176.50,1.37,19,1,3,0,1,1
3558863,-3772,-755,-6545,-2746,247,-6545,2757.1,174.86,187.08,-1722,1826,-7430,-4037,1449,2733,34.1349497,-118.1457371,2.43,165.69,1.37,19,1,3,0,1,1
3558873,-3772,-755,-6545,-2746,247,-6545,2757.1,174.86,187.08,-1504,1824,-7292,-3177,1429,1674,34.1349497,-118.1457371,2.43,165.69,1.37,19,1,3,0,1,1
3558883,-3772,-755,-6545,-2746,247,-6545,2757.1,174.86,187.08,-1260,1722,-7046,-2269,1481,656,34.1349497,-118.1457371,2.43,165.69,1.37,19,1,3,0,1,1
3558893,-3772,-755,-6545,-2746,247,-6545,2757.1,174.86,187.08,-902,1323,-6660,-1627,1377,-583,34.1349497,-118.1457371,2.43,165.69,1.37,19,1,3,0,1,1
3558903,-3772,-755,-6545,-2746,247,-6545,2757.1,174.86,187.08,-680,1036,-6454,-1855,1176,-1133,34.1349497,-118.1457371,2.43,165.69,1.37,19,1,3,0,1,1
3558913,-3772,-755,-6545,-2746,247,-6545,2757.1,174.86,187.08,-462,849,-6339,-2342,934,-1422,34.1349497,-118.1457371,2.43,165.69,1.37,19,1,3,0,1,1
3558923,-3772,-755,-6545,-2746,247,-6545,2757.1,174.86,187.08,-261,755,-6307,-2698,694,-1623,34.1349497,-118.1457371,2.43,165.69,1.37,19,1,3,0,1,1
3558933,-3772,-755,-6545,-2746,247,-6545,2757.1,174.86,187.08,-90,680,-6275,-2201,698,-2058,34.1349497,-118.1457371,2.43,165.69,1.37,19,1,3,0,1,1
3558943,-3772,-755,-6545,-2746,247,-6545,2757.1,174.86,187.08,80,399,-6186,-1202,938,-2171,34.1349497,-118.1457371,2.43,165.69,1.37,19,1,3,0,1,1
3558953,-3772,-755,-6545,-2746,247,-6545,2757.1,174.86,187.08,145,127,-6039,-210,1151,-2087,34.1349497,-118.1457371,2.43,165.69,1.37,19,1,3,0,1,1
3558963,-3712,-665,-6642,-2686,337,-6642,2707.1,172.85,185.06,207,-90,-5863,362,1289,-1914,34.1349491,-118.1457369,2.14,166.53,1.37,19,1,3,0,1,1
3558973,-3712,-665,-6642,-2686,337,-6642,2707.1,172.85,185.06,283,-276,-5653,432,1233,-1541,34.1349491,-118.1457369,2.14,166.53,1.37,19,1,3,0,1,1
3558983,-3712,-665,-6642,-2686,337,-6642,2707.1,172.85,185.06,284,-387,-5608,227,1041,-1198,34.1349491,-118.1457369,2.14,166.53,1.37,19,1,3,0,1,1
3558993,-3712,-665,-6642,-2686,337,-6642,2707.1,172.85,185.06,228,-481,-5630,7,811,-777,34.1349491,-118.1457369,2.14,166.53,1.37,19,1,3,0,1,1
3559003,-3712,-665,-6642,-2686,337,-6642,2707.1,172.85,185.06,120,-483,-5669,14,597,-301,34.1349491,-118.1457369,2.14,166.53,1.37,19,1,3,0,1,1
3559013,-3712,-665,-6642,-2686,337,-6642,2707.1,172.85,185.06,-69,-309,-5705,434,498,393,34.1349491,-118.1457369,2.14,166.53,1.37,19,1,3,0,1,1
3559023,-3712,-665,-6642,-2686,337,-6642,2707.1,172.85,185.06,-218,-202,-5810,483,578,714,34.1349491,-118.1457369,2.14,166.53,1.37,19,1,3,0,1,1
3559033,-3712,-665,-6642,-2686,337,-6642,2707.1,172.85,185.06,-386,-134,-6042,125,636,881,34.1349491,-118.1457369,2.14,166.53,1.37,19,1,3,0,1,1
3559043,-3712,-665,-6642,-2686,337,-6642,2707.1,172.85,185.06,-513,-6,-6330,-191,642,907,34.1349491,-118.1457369,2.14,166.53,1.37,19,1,3,0,1,1
3559053,-3712,-665,-6642,-2686,337,-6642,2707.1,172.85,185.06,-540,295,-6704,364,524,731,34.1349491,-118.1457369,2.14,166.53,1.37,19,1,3,0,1,1
3559063,-3752,-567,-6572,-2726,435,-6572,2760.5,170.93,183.15,-480,357,-6888,1059,359,546,34.1349482,-118.1457366,2.14,175.35,1.37,19,1,3,0,1,1
3559073,-3752,-567,-6572,-2726,435,-6572,2760.5,170.93,183.15,-430,228,-7086,1395,75,394,34.1349482,-118.1457366,2.14,175.35,1.37,19,1,3,0,1,1
3559083,-3752,-567,-6572,-2726,435,-6572,2760.5,170.93,183.15,-386,100,-7251,1123,-363,359,34.1349482,-118.1457366,2.14,175.35,1.37,19,1,3,0,1,1
3559093,-3752,-567,-6572,-2726,435,-6572,2760.5,170.93,183.15,-325,213,-7385,475,-1023,472,34.1349482,-118.1457366,2.14,175.35,1.37,19,1,3,0,1,1
3559103,-3752,-567,-6572,-2726,435,-6572,2760.5,170.93,183.15,-339,310,-7450,542,-1251,637,34.1349482,-118.1457366,2.14,175.35,1.37,19,1,3,0,1,1
3559113,-3752,-567,-6572,-2726,435,-6572,2760.5,170.93,183.15,-402,315,-7521,874,-1230,790,34.1349482,-118.1457366,2.14,175.35,1.37,19,1,3,0,1,1
3559123,-3752,-567,-6572,-2726,435,-6572,2760.5,170.93,183.15,-457,252,-7612,1031,-993,847,34.1349482,-118.1457366,2.14,175.35,1.37,19,1,3,0,1,1
3559133,-3752,-567,-6572,-2726,435,-6572,2760.5,170.93,183.15,-473,114,-7817,723,-582,880,34.1349482,-118.1457366,2.14,175.35,1.37,19,1,3,0,1,1
3559143,-3752,-567,-6572,-2726,435,-6572,2760.5,170.93,183.15,-466,36,-8046,334,-380,870,34.1349482,-118.1457366,2.14,175.35,1.37,19,1,3,0,1,1
3559153,-3752,-567,-6572,-2726,435,-6572,2760.5,170.93,183.15,-426,-83,-8352,-136,-254,676,34.1349482,-118.1457366,2.14,175.35,1.37,19,1,3,0,1,1
3559163,-3757,-655,-6530,-2731,347,-6530,2753.0,172.76,184.98,-323,-326,-8653,-527,-336,287,34.1349472,-118.1457363,2.27,168.68,1.37,19,1,3,0,1,1
3559173,-3757,-655,-6530,-2731,347,-6530,2753.0,172.76,184.98,-136,-823,-8842,-1004,-1040,265,34.1349472,-118.1457363,2.27,168.68,1.37,19,1,3,0,1,1
3559183,-3757,-655,-6530,-2731,347,-6530,2753.0,172.76,184.98,-125,-974,-8710,-1904,-1770,927,34.1349472,-118.1457363,2.27,168.68,1.37,19,1,3,0,1,1
3559193,-3757,-655,-6530,-2731,347,-6530,2753.0,172.76,184.98,-295,-768,-8471,-3357,-2149,1704,34.1349472,-118.1457363,2.27,168.68,1.37,19,1,3,0,1,1
3559203,-3757,-655,-6530,-2731,347,-6530,2753.0,172.76,184.98,-592,-317,-8328,-4772,-1684,2147,34.1349472,-118.1457363,2.27,168.68,1.37,19,1,3,0,1,1
3559213,-3757,-655,-6530,-2731,347,-6530,2753.0,172.76,184.98,-936,246,-8735,-5903,342,2102,34.1349472,-118.1457363,2.27,168.68,1.37,19,1,3,0,1,1
3559223,-3757,-655,-6530,-2731,347,-6530,2753.0,172.76,184.98,-911,477,-9482,-6173,1800,1806,34.1349472,-118.1457363,2.27,168.68,1.37,19,1,3,0,1,1
3559233,-3757,-655,-6530,-2731,347,-6530,2753.0,172.76,184.98,-655,678,-10384,-6249,2588,1290,34.1349472,-118.1457363,2.27,168.68,1.37,19,1,3,0,1,1
3559243,-3757,-655,-6530,-2731,347,-6530,2753.0,172.76,184.98,-262,840,-11218,-6051,2515,592,34.1349472,-118.1457363,2.27,168.68,1.37,19,1,3,0,1,1
3559253,-3757,-655,-6530,-2731,347,-6530,2753.0,172.76,184.98,386,947,-12123,-4615,1737,-138,34.1349472,-118.1457363,2.27,168.68,1.37,19,1,3,0,1,1
3559263,-3520,-670,-6677,-2494,332,-6677,2516.0,172.42,184.63,889,1044,-12398,-2983,763,-67,34.1349460,-118.1457359,2.15,161.48,1.37,19,1,3,0,1,1
3559273,-3520,-670,-6677,-2494,332,-6677,2516.0,172.42,184.63,1383,1243,-12334,-1615,-634,155,34.1349460,-118.1457359,2.15,161.48,1.37,19,1,3,0,1,1
3559283,-3520,-670,-6677,-2494,332,-6677,2516.0,172.42,184.63,1636,1467,-11895,-560,-1953,378,34.1349460,-118.1457359,2.15,161.48,1.37,19,1,3,0,1,1
3559293,-3520,-670,-6677,-2494,332,-6677,2516.0,172.42,184.63,1461,1646,-10704,959,-3048,1007,34.1349460,-118.1457359,2.15,161.48,1.37,19,1,3,0,1,1
3559303,-3520,-670,-6677,-2494,332,-6677,2516.0,172.42,184.63,1166,1676,-9755,1892,-2948,1465,34.1349460,-118.1457359,2.15,161.48,1.37,19,1,3,0,1,1
3559313,-3520,-670,-6677,-2494,332,-6677,2516.0,172.42,184.63,897,1724,-8801,2762,-2420,1734,34.1349460,-118.1457359,2.15,161.48,1.37,19,1,3,0,1,1
3559323,-3520,-670,-6677,-2494,332,-6677,2516.0,172.42,184.63,691,1772,-7889,3490,-1807,1663,34.1349460,-118.1457359,2.15,161.48,1.37,19,1,3,0,1,1
3559333,-3520,-670,-6677,-2494,332,-6677,2516.0,172.42,184.63,354,1505,-6681,3848,-940,887,34.1349460,-118.1457359,2.15,161.48,1.37,19,1,3,0,1,1
3559343,-3520,-670,-6677,-2494,332,-6677,2516.0,172.42,184.63,109,1092,-6022,3568,-324,125,34.1349460,-118.1457359,2.15,161.48,1.37,19,1,3,0,1,1
