# cc-radar field sample
# firmware=v26.08.01 build=1785625163
# rtc=2026-08-01 23:51:06
# label=walk-straight
# uptime_ms=3017621
# compass_cal_x=-1026 compass_cal_y=-1002 compass_cal_z=0 calibrated=1
# declination_deg=12.216 declination_valid=1
# h0=unknown
# zoom=3
# accel_enabled=1 accel_addr=0x6B gyro_enabled=0
# mag_scale_lsb_per_uT=120 accel_lsb_per_g=8192 gyro_lsb_per_dps=128
# nominal_rate_hz=10
# i2c_start_ops=13462 i2c_start_fails=5
ms,mx,my,mz,cx,cy,cz,h_mag,heading_mag,heading_true,ax,ay,az,gx,gy,gz,lat,lon,speed_kn,course,hdop,sats,fix_valid,zoom,mag_overflow,accel_valid,gyro_valid
3017661,1452,-2010,-7005,2478,-1008,-7005,2675.2,337.86,350.08,34,-926,-7527,0,0,0,34.1335509,-118.1456719,0.35,0.00,1.29,17,1,3,0,1,0
3017761,1320,-2097,-7142,2346,-1095,-7142,2589.0,334.98,347.20,-82,-959,-7565,0,0,0,34.1335506,-118.1456718,0.47,0.00,1.29,17,1,3,0,1,0
3017861,1367,-2087,-7102,2393,-1085,-7102,2627.5,335.61,347.83,202,-1073,-7702,0,0,0,34.1335502,-118.1456718,0.70,0.00,1.29,17,1,3,0,1,0
3017961,1307,-2072,-7130,2333,-1070,-7130,2566.7,335.36,347.58,1,-927,-7715,0,0,0,34.1335500,-118.1456718,0.68,0.00,1.29,17,1,3,0,1,0
3018061,1320,-2062,-7130,2346,-1060,-7130,2574.4,335.68,347.90,-123,-968,-7741,0,0,0,34.1335502,-118.1456717,0.52,0.00,1.29,17,1,3,0,1,0
3018161,1367,-2102,-7072,2393,-1100,-7072,2633.7,335.31,347.53,218,-906,-7420,0,0,0,34.1335509,-118.1456714,0.58,0.00,1.29,17,1,3,0,1,0
3018261,1335,-2117,-7140,2361,-1115,-7140,2611.0,334.72,346.94,67,-676,-7584,0,0,0,34.1335520,-118.1456709,0.20,0.00,1.29,17,1,3,0,1,0
3018361,1320,-2097,-7125,2346,-1095,-7125,2589.0,334.98,347.20,272,-933,-7764,0,0,0,34.1335542,-118.1456705,0.39,0.00,1.35,16,1,3,0,1,0
3018461,1312,-2117,-7130,2338,-1115,-7130,2590.3,334.50,346.72,158,-829,-7527,0,0,0,34.1335559,-118.1456701,0.83,0.00,1.35,16,1,3,0,1,0
3018561,1282,-2097,-7125,2308,-1095,-7125,2554.6,334.62,346.83,492,-1138,-7511,0,0,0,34.1335571,-118.1456699,1.07,0.00,1.35,16,1,3,0,1,0
3018661,1292,-2122,-7142,2318,-1120,-7142,2574.4,334.21,346.43,334,-1151,-7654,0,0,0,34.1335577,-118.1456698,0.64,0.00,1.35,16,1,3,0,1,0
3018761,1400,-2082,-7077,2426,-1080,-7077,2655.5,336.00,348.22,66,-925,-7798,0,0,0,34.1335579,-118.1456699,0.79,0.00,1.35,16,1,3,0,1,0
3018861,1395,-2062,-7105,2421,-1060,-7105,2642.9,336.35,348.57,89,-1197,-7224,0,0,0,34.1335571,-118.1456699,1.34,0.00,1.35,16,1,3,0,1,0
3018961,1415,-2057,-7120,2441,-1055,-7120,2659.2,336.63,348.84,179,-1388,-7564,0,0,0,34.1335565,-118.1456699,0.62,0.00,1.35,16,1,3,0,1,0
3019061,1457,-2005,-7102,2483,-1003,-7102,2677.9,338.00,350.22,37,-1621,-7624,0,0,0,34.1335564,-118.1456698,1.00,0.00,1.35,16,1,3,0,1,0
3019161,1447,-2055,-7105,2473,-1053,-7105,2687.9,336.94,349.15,36,-1220,-7548,0,0,0,34.1335562,-118.1456697,0.88,0.00,1.35,16,1,3,0,1,0
3019261,1382,-2125,-7110,2408,-1123,-7110,2657.0,335.00,347.21,34,-1468,-7379,0,0,0,34.1335553,-118.1456701,1.23,0.00,1.33,17,1,3,0,1,0
3019361,1395,-2165,-7120,2421,-1163,-7120,2685.9,334.34,346.56,492,-731,-8522,0,0,0,34.1335544,-118.1456703,1.12,344.97,1.33,17,1,3,0,1,0
3019461,1410,-2170,-7092,2436,-1168,-7092,2701.5,334.38,346.60,80,-1083,-7871,0,0,0,34.1335534,-118.1456705,0.55,0.00,1.33,17,1,3,0,1,0
3019561,1335,-2202,-7175,2361,-1200,-7175,2648.5,333.06,345.27,-189,-381,-7504,0,0,0,34.1335529,-118.1456704,1.37,0.00,1.33,17,1,3,0,1,0
3019661,1232,-2222,-7152,2258,-1220,-7152,2566.5,331.62,343.83,-326,-872,-7388,0,0,0,34.1335528,-118.1456701,3.69,22.42,1.33,17,1,3,0,1,0
3019761,1255,-2190,-7152,2281,-1188,-7152,2571.8,332.49,344.70,-666,-955,-7338,0,0,0,34.1335524,-118.1456701,2.78,12.62,1.33,17,1,3,0,1,0
3019861,1245,-2185,-7180,2271,-1183,-7180,2560.7,332.48,344.70,158,-1359,-7094,0,0,0,34.1335515,-118.1456704,0.37,0.00,1.33,17,1,3,0,1,0
3019961,1315,-2117,-7152,2341,-1115,-7152,2593.0,334.53,346.75,-173,-1513,-7326,0,0,0,34.1335526,-118.1456704,1.98,0.00,1.33,17,1,3,0,1,0
3020061,1372,-2072,-7092,2398,-1070,-7092,2625.9,335.95,348.17,-293,-984,-8046,0,0,0,34.1335543,-118.1456703,1.28,0.00,1.33,17,1,3,0,1,0
3020161,1312,-2077,-7157,2338,-1075,-7157,2573.3,335.31,347.52,-386,-1131,-7392,0,0,0,34.1335559,-118.1456703,0.94,0.00,1.33,17,1,3,0,1,0
3020261,1442,-2025,-7162,2468,-1023,-7162,2671.6,337.49,349.70,427,-648,-8887,0,0,0,34.1335559,-118.1456708,1.66,351.67,1.33,17,1,3,0,1,0
3020361,1312,-2045,-7142,2338,-1043,-7142,2560.1,335.96,348.17,-325,-590,-6984,0,0,0,34.1335558,-118.1456714,1.82,356.01,1.33,17,1,3,0,1,0
3020461,1427,-2010,-7167,2453,-1008,-7167,2652.0,337.66,349.88,534,-838,-8003,0,0,0,34.1335553,-118.1456720,0.96,353.48,1.33,17,1,3,0,1,0
3020561,1330,-2077,-7172,2356,-1075,-7172,2589.7,335.47,347.69,231,-1416,-6704,0,0,0,34.1335544,-118.1456727,0.36,354.27,1.33,17,1,3,0,1,0
3020661,1277,-2020,-7200,2303,-1018,-7200,2518.0,336.15,348.37,37,-1320,-6871,0,0,0,34.1335538,-118.1456733,0.88,1.50,1.33,17,1,3,0,1,0
3020761,1240,-2000,-7232,2266,-998,-7232,2476.0,336.23,348.45,-208,-1638,-7229,0,0,0,34.1335532,-118.1456742,0.98,354.77,1.21,18,1,3,0,1,0
3020861,1190,-2035,-7240,2216,-1033,-7240,2444.9,335.01,347.22,-434,-1358,-8388,0,0,0,34.1335525,-118.1456753,1.12,342.17,1.21,18,1,3,0,1,0
3020961,1200,-1962,-7222,2226,-960,-7222,2424.2,336.67,348.89,603,-776,-8771,0,0,0,34.1335528,-118.1456758,1.78,346.43,1.21,18,1,3,0,1,0
3021061,1120,-1972,-7260,2146,-970,-7260,2355.0,335.68,347.89,-49,-1059,-7009,0,0,0,34.1335525,-118.1456770,1.32,0.00,1.21,18,1,3,0,1,0
3021161,1185,-1977,-7255,2211,-975,-7255,2416.4,336.20,348.42,-167,-79,-7405,0,0,0,34.1335526,-118.1456779,0.71,10.19,1.21,18,1,3,0,1,0
3021261,1077,-1937,-7260,2103,-935,-7260,2301.5,336.03,348.25,294,-1051,-7101,0,0,0,34.1335528,-118.1456784,1.05,8.83,1.21,18,1,3,0,1,0
3021361,1067,-1860,-7212,2093,-858,-7212,2262.0,337.71,349.93,-3,-1123,-7334,0,0,0,34.1335542,-118.1456785,1.74,3.01,1.21,18,1,3,0,1,0
3021461,1077,-1900,-7205,2103,-898,-7205,2286.7,336.88,349.09,-74,-1085,-7487,0,0,0,34.1335547,-118.1456786,0.92,3.12,1.21,18,1,3,0,1,0
3021561,1050,-1865,-7260,2076,-863,-7260,2248.2,337.43,349.64,-67,-1414,-7618,0,0,0,34.1335537,-118.1456793,0.12,355.42,1.21,18,1,3,0,1,0
3021661,1142,-1697,-7227,2168,-695,-7227,2276.7,342.23,354.44,680,-1284,-8146,0,0,0,34.1335531,-118.1456799,0.32,0.00,1.21,18,1,3,0,1,0
3021761,1222,-1765,-7250,2248,-763,-7250,2374.0,341.25,353.47,-646,-660,-6757,0,0,0,34.1335536,-118.1456801,1.57,345.89,1.21,18,1,3,0,1,0
3021861,1217,-1735,-7195,2243,-733,-7195,2359.7,341.90,354.12,747,-828,-8164,0,0,0,34.1335546,-118.1456806,0.89,342.58,1.21,18,1,3,0,1,0
3021961,1202,-1725,-7195,2228,-723,-7195,2342.4,342.02,354.24,26,-1129,-6721,0,0,0,34.1335544,-118.1456804,0.17,0.00,1.21,18,1,3,0,1,0
3022061,1212,-1837,-7115,2238,-835,-7115,2388.7,339.54,351.76,-192,-1162,-7073,0,0,0,34.1335540,-118.1456802,1.16,0.00,1.21,18,1,3,0,1,0
3022161,1200,-1807,-7077,2226,-805,-7077,2367.1,340.12,352.33,-459,-281,-8309,0,0,0,34.1335545,-118.1456799,2.45,22.90,1.21,18,1,3,0,1,0
3022261,1297,-1870,-7055,2323,-868,-7055,2479.9,339.51,351.73,-58,-1123,-8360,0,0,0,34.1335546,-118.1456798,0.67,0.62,1.21,18,1,3,0,1,0
3022361,1240,-1812,-7065,2266,-810,-7065,2406.4,340.33,352.55,25,-42,-8031,0,0,0,34.1335550,-118.1456797,0.65,0.00,1.21,18,1,3,0,1,0
3022461,1320,-1697,-7050,2346,-695,-7050,2446.8,343.50,355.71,363,611,-7744,0,0,0,34.1335552,-118.1456797,1.51,1.63,1.21,18,1,3,0,1,0
3022561,1352,-1692,-7032,2378,-690,-7032,2476.1,343.82,356.04,115,-593,-6967,0,0,0,34.1335553,-118.1456799,1.23,2.37,1.28,17,1,3,0,1,0
3022661,1287,-1770,-7055,2313,-768,-7055,2437.2,341.63,353.85,98,-682,-7114,0,0,0,34.1335555,-118.1456798,0.34,353.18,1.21,18,1,3,0,1,0
3022761,1255,-1715,-6942,2281,-713,-6942,2389.8,342.64,354.86,166,-311,-7703,0,0,0,34.1335544,-118.1456809,0.88,326.75,1.21,18,1,3,0,1,0
3022861,1245,-1697,-6980,2271,-695,-6980,2375.0,342.98,355.20,21,-1201,-7340,0,0,0,34.1335529,-118.1456820,0.61,324.09,1.21,18,1,3,0,1,0
3022961,1282,-1552,-7000,2308,-550,-7000,2372.6,346.60,358.81,934,-114,-8766,0,0,0,34.1335516,-118.1456833,1.68,323.23,1.21,18,1,3,0,1,0
3023061,1282,-1620,-6915,2308,-618,-6915,2389.3,345.01,357.23,-389,-15,-6708,0,0,0,34.1335499,-118.1456846,0.99,332.21,1.21,18,1,3,0,1,0
3023161,1400,-1580,-6920,2426,-578,-6920,2493.9,346.60,358.82,727,-523,-8110,0,0,0,34.1335484,-118.1456856,0.43,0.00,1.21,18,1,3,0,1,0
3023261,1420,-1542,-6845,2446,-540,-6845,2504.9,347.55,359.77,217,-1195,-6779,0,0,0,34.1335491,-118.1456864,0.52,0.00,1.21,18,1,3,0,1,0
3023361,1340,-1600,-6920,2366,-598,-6920,2440.4,345.82,358.03,416,-859,-7764,0,0,0,34.1335514,-118.1456875,1.21,0.00,1.21,18,1,3,0,1,0
3023461,1227,-1512,-6870,2253,-510,-6870,2310.0,347.25,359.46,380,-1159,-7856,0,0,0,34.1335531,-118.1456878,1.03,0.00,1.21,18,1,3,0,1,0
3023561,1180,-1562,-6915,2206,-560,-6915,2276.0,345.76,357.97,24,-195,-8303,0,0,0,34.1335561,-118.1456875,1.62,0.00,1.21,18,1,3,0,1,0
3023661,1250,-1507,-6877,2276,-505,-6877,2331.4,347.49,359.71,-479,-351,-8364,0,0,0,34.1335589,-118.1456873,1.50,0.00,1.21,18,1,3,0,1,0
3023761,1315,-1412,-6925,2341,-410,-6925,2376.6,350.07,2.28,-73,-233,-7600,0,0,0,34.1335611,-118.1456869,0.43,0.00,1.21,18,1,3,0,1,0
3023861,1302,-1455,-6860,2328,-453,-6860,2371.7,348.99,1.20,-74,-598,-6672,0,0,0,34.1335639,-118.1456866,1.33,0.00,1.21,18,1,3,0,1,0
3023961,1330,-1422,-6822,2356,-420,-6822,2393.1,349.89,2.11,344,-897,-7163,0,0,0,34.1335685,-118.1456860,1.38,2.60,1.21,18,1,3,0,1,0
3024061,1357,-1350,-6907,2383,-348,-6907,2408.3,351.69,3.91,28,-826,-7553,0,0,0,34.1335701,-118.1456859,0.72,353.83,1.21,18,1,3,0,1,0
3024161,1335,-1427,-6822,2361,-425,-6822,2398.9,349.80,2.01,244,-340,-8789,0,0,0,34.1335722,-118.1456858,1.95,351.31,1.21,18,1,3,0,1,0
3024261,1395,-1340,-6812,2421,-338,-6812,2444.5,352.05,4.27,299,-520,-8673,0,0,0,34.1335742,-118.1456862,1.71,333.05,1.21,18,1,3,0,1,0
3024361,1410,-1335,-6785,2436,-333,-6785,2458.7,352.22,4.43,-150,-13,-7072,0,0,0,34.1335753,-118.1456864,1.89,341.09,1.21,18,1,3,0,1,0
3024461,1470,-1350,-6827,2496,-348,-6827,2520.1,352.06,4.28,215,-443,-7804,0,0,0,34.1335760,-118.1456866,1.19,358.19,1.21,18,1,3,0,1,0
3024561,1442,-1377,-6850,2468,-375,-6850,2496.3,351.36,3.58,417,-984,-6959,0,0,0,34.1335768,-118.1456865,0.97,11.26,1.21,18,1,3,0,1,0
3024661,1437,-1377,-6860,2463,-375,-6860,2491.4,351.34,3.56,176,-808,-7457,0,0,0,34.1335778,-118.1456866,1.56,5.56,1.21,18,1,3,0,1,0
3024761,1387,-1325,-6877,2413,-323,-6877,2434.5,352.38,4.59,331,-1028,-8298,0,0,0,34.1335790,-118.1456869,1.65,357.61,1.15,19,1,3,0,1,0
3024861,1405,-1475,-6865,2431,-473,-6865,2476.6,348.99,1.21,-764,-1296,-7876,0,0,0,34.1335802,-118.1456873,2.39,351.71,1.15,19,1,3,0,1,0
3024961,1507,-1397,-6882,2533,-395,-6882,2563.6,351.14,3.35,206,-82,-8616,0,0,0,34.1335821,-118.1456878,2.28,356.45,1.15,19,1,3,0,1,0
3025061,1447,-1370,-6940,2473,-368,-6940,2500.2,351.54,3.75,170,-498,-7249,0,0,0,34.1335835,-118.1456881,1.33,7.40,1.15,19,1,3,0,1,0
3025161,1490,-1437,-6935,2516,-435,-6935,2553.3,350.19,2.41,-411,-767,-6372,0,0,0,34.1335845,-118.1456885,0.62,20.56,1.15,19,1,3,0,1,0
3025261,1545,-1397,-6962,2571,-395,-6962,2601.2,351.27,3.48,347,-1017,-6697,0,0,0,34.1335855,-118.1456891,1.37,3.18,1.15,19,1,3,0,1,0
3025361,1565,-1350,-6952,2591,-348,-6952,2614.3,352.35,4.57,136,-887,-7466,0,0,0,34.1335866,-118.1456897,1.04,353.08,1.15,19,1,3,0,1,0
3025461,1537,-1340,-7005,2563,-338,-7005,2585.2,352.49,4.70,466,-796,-8528,0,0,0,34.1335877,-118.1456903,2.18,346.09,1.15,19,1,3,0,1,0
3025561,1577,-1422,-6990,2603,-420,-6990,2636.7,350.83,3.05,51,-642,-8491,0,0,0,34.1335889,-118.1456909,1.44,352.78,1.15,19,1,3,0,1,0
3025661,1575,-1490,-7005,2601,-488,-7005,2646.4,349.37,1.59,-114,-394,-6687,0,0,0,34.1335902,-118.1456912,1.45,4.22,1.15,19,1,3,0,1,0
3025761,1652,-1500,-6915,2678,-498,-6915,2723.9,349.47,1.68,404,-48,-8624,0,0,0,34.1335914,-118.1456916,1.28,11.29,1.15,19,1,3,0,1,0
3025861,1662,-1507,-6972,2688,-505,-6972,2735.0,349.36,1.58,176,-1047,-6878,0,0,0,34.1335921,-118.1456922,0.84,26.96,1.15,19,1,3,0,1,0
3025961,1550,-1557,-6962,2576,-555,-6962,2635.1,347.84,0.06,262,-924,-7216,0,0,0,34.1335929,-118.1456930,1.06,25.60,1.15,19,1,3,0,1,0
3026061,1570,-1552,-7027,2596,-550,-7027,2653.6,348.04,0.25,-142,-605,-8212,0,0,0,34.1335943,-118.1456935,1.12,0.00,1.15,19,1,3,0,1,0
3026161,1540,-1677,-7045,2566,-675,-7045,2653.3,345.26,357.48,-193,-1007,-8336,0,0,0,34.1335953,-118.1456943,1.40,0.00,1.15,19,1,3,0,1,0
3026261,1545,-1605,-6962,2571,-603,-6962,2640.8,346.80,359.02,132,-242,-7696,0,0,0,34.1335957,-118.1456951,1.71,3.86,1.15,19,1,3,0,1,0
3026361,1607,-1557,-6980,2633,-555,-6980,2690.9,348.10,0.31,235,458,-7985,0,0,0,34.1335962,-118.1456959,1.77,357.53,1.15,19,1,3,0,1,0
3026461,1620,-1640,-7000,2646,-638,-7000,2721.8,346.44,358.66,-97,-574,-6621,0,0,0,34.1335967,-118.1456966,1.61,2.60,1.15,19,1,3,0,1,0
3026561,1565,-1567,-6980,2591,-565,-6980,2651.9,347.70,359.91,497,-885,-7165,0,0,0,34.1335969,-118.1456971,1.34,5.47,1.15,19,1,3,0,1,0
3026661,1607,-1527,-7007,2633,-525,-7007,2684.8,348.72,0.94,-228,-417,-7748,0,0,0,34.1335972,-118.1456976,1.17,7.31,1.15,19,1,3,0,1,0
3026761,1570,-1407,-7000,2596,-405,-7000,2627.4,351.13,3.35,597,-1090,-8439,0,0,0,34.1335974,-118.1456980,1.02,11.14,1.15,19,1,3,0,1,0
3026861,1577,-1320,-6975,2603,-318,-6975,2622.4,353.03,5.25,486,-708,-8569,0,0,0,34.1335978,-118.1456987,1.28,359.07,1.15,19,1,3,0,1,0
3026961,1512,-1257,-7045,2538,-255,-7045,2550.8,354.26,6.48,-62,-285,-7254,0,0,0,34.1335983,-118.1456990,1.64,352.31,1.15,19,1,3,0,1,0
3027061,1602,-1305,-6967,2628,-303,-6967,2645.4,353.42,5.64,-181,-182,-7712,0,0,0,34.1335994,-118.1456993,2.37,351.06,1.15,19,1,3,0,1,0
3027161,1540,-1432,-7012,2566,-430,-7012,2601.8,350.49,2.70,360,-1129,-6704,0,0,0,34.1335999,-118.1456998,2.64,354.68,1.15,19,1,3,0,1,0
3027261,1550,-1402,-6990,2576,-400,-6990,2606.9,351.17,3.39,95,-726,-7476,0,0,0,34.1336004,-118.1457004,1.38,356.15,1.15,19,1,3,0,1,0
3027361,1507,-1500,-6985,2533,-498,-6985,2581.5,348.88,1.09,551,-862,-8356,0,0,0,34.1336011,-118.1457009,2.77,356.85,1.15,19,1,3,0,1,0
3027461,1427,-1620,-6980,2453,-618,-6980,2529.7,345.86,358.08,-423,-1995,-7688,0,0,0,34.1336011,-118.1457011,1.24,0.74,1.15,19,1,3,0,1,0
3027561,1465,-1615,-6985,2491,-613,-6985,2565.3,346.18,358.39,276,691,-9137,0,0,0,34.1336012,-118.1457014,1.79,359.33,1.15,19,1,3,0,1,0
3027661,1405,-1620,-7087,2431,-618,-7087,2508.3,345.74,357.95,195,303,-7840,0,0,0,34.1336011,-118.1457015,0.98,4.91,1.15,19,1,3,0,1,0
3027761,1377,-1720,-6990,2403,-718,-6990,2508.0,343.36,355.58,-26,-737,-6758,0,0,0,34.1336009,-118.1457018,1.08,2.89,1.15,19,1,3,0,1,0
3027861,1362,-1812,-7032,2388,-810,-7032,2521.6,341.26,353.48,105,-801,-6993,0,0,0,34.1336012,-118.1457023,1.93,358.06,1.15,19,1,3,0,1,0
3027961,1297,-1745,-7032,2323,-743,-7032,2438.9,342.26,354.48,0,-918,-7273,0,0,0,34.1336011,-118.1457027,1.90,355.69,1.15,19,1,3,0,1,0
3028061,1237,-1780,-7097,2263,-778,-7097,2393.0,341.03,353.24,370,-1281,-8279,0,0,0,34.1336019,-118.1457031,2.58,355.17,1.15,19,1,3,0,1,0
3028161,1260,-1687,-7072,2286,-685,-7072,2386.4,343.32,355.54,701,-706,-9021,0,0,0,34.1336025,-118.1457037,2.74,352.22,1.15,19,1,3,0,1,0
3028261,1255,-1657,-7072,2281,-655,-7072,2373.2,343.98,356.19,-611,-719,-5867,0,0,0,34.1336029,-118.1457041,2.70,356.44,1.15,19,1,3,0,1,0
3028361,1352,-1720,-7032,2378,-718,-7032,2484.0,343.20,355.42,583,-383,-8407,0,0,0,34.1336018,-118.1457045,1.61,357.84,1.15,19,1,3,0,1,0
3028461,1217,-1782,-7040,2243,-780,-7040,2374.8,340.82,353.04,72,-1168,-6601,0,0,0,34.1336005,-118.1457049,0.36,3.34,1.15,19,1,3,0,1,0
3028561,1207,-1832,-7087,2233,-830,-7087,2382.3,339.61,351.83,114,-1211,-7521,0,0,0,34.1335997,-118.1457054,1.01,0.38,1.15,19,1,3,0,1,0
3028661,1100,-1827,-7072,2126,-825,-7072,2280.5,338.79,351.01,-401,-939,-8158,0,0,0,34.1335989,-118.1457060,1.20,351.74,1.15,19,1,3,0,1,0
3028761,1132,-1920,-7060,2158,-918,-7060,2345.1,336.96,349.17,-108,-1183,-8746,0,0,0,34.1335983,-118.1457066,1.60,345.49,1.15,19,1,3,0,1,0
3028861,1152,-1932,-7097,2178,-930,-7097,2368.2,336.88,349.09,-61,-525,-7460,0,0,0,34.1335977,-118.1457071,1.16,357.50,1.15,19,1,3,0,1,0
3028961,1232,-1797,-7050,2258,-795,-7050,2393.9,340.60,352.82,17,362,-7435,0,0,0,34.1335972,-118.1457076,1.35,355.79,1.15,19,1,3,0,1,0
3029061,1125,-1890,-7050,2151,-888,-7050,2327.1,337.57,349.78,333,-1013,-6886,0,0,0,34.1335968,-118.1457079,1.33,357.69,1.15,19,1,3,0,1,0
3029161,1077,-1932,-7065,2103,-930,-7065,2299.5,336.14,348.36,18,-1440,-6844,0,0,0,34.1335965,-118.1457083,1.43,2.33,1.15,19,1,3,0,1,0
3029261,1110,-1837,-7125,2136,-835,-7125,2293.4,338.65,350.86,-84,-935,-7991,0,0,0,34.1335961,-118.1457085,1.42,2.59,1.15,19,1,3,0,1,0
3029361,1090,-1885,-7097,2116,-883,-7097,2292.8,337.35,349.57,99,-1387,-8010,0,0,0,34.1335962,-118.1457088,2.05,4.51,1.15,19,1,3,0,1,0
3029461,1142,-1682,-7087,2168,-680,-7087,2272.1,342.59,354.80,260,-521,-8256,0,0,0,34.1335962,-118.1457090,1.48,2.70,1.15,19,1,3,0,1,0
3029561,1115,-1787,-7097,2141,-785,-7097,2280.4,339.86,352.08,-649,-715,-6265,0,0,0,34.1335963,-118.1457089,1.18,14.07,1.15,19,1,3,0,1,0
3029661,1127,-1782,-7082,2153,-780,-7082,2289.9,340.09,352.30,492,-1031,-7638,0,0,0,34.1335964,-118.1457088,1.65,13.05,1.15,19,1,3,0,1,0
3029761,1072,-1792,-7070,2098,-790,-7070,2241.8,339.37,351.58,96,-1419,-6512,0,0,0,34.1335974,-118.1457087,0.83,14.51,1.15,19,1,3,0,1,0
3029861,1062,-1832,-7072,2088,-830,-7072,2246.9,338.32,350.54,46,-1544,-7643,0,0,0,34.1335985,-118.1457089,1.25,8.35,1.15,19,1,3,0,1,0
3029961,997,-1780,-7097,2023,-778,-7097,2167.4,338.96,351.18,-831,-1038,-8653,0,0,0,34.1335994,-118.1457090,1.14,9.64,1.15,19,1,3,0,1,0
3030062,1020,-1782,-7120,2046,-780,-7120,2189.6,339.13,351.35,174,-719,-9326,0,0,0,34.1336007,-118.1457096,2.01,345.75,1.15,19,1,3,0,1,0
3030161,945,-1782,-7190,1971,-780,-7190,2119.7,338.41,350.63,-468,-506,-6494,0,0,0,34.1336021,-118.1457101,3.00,343.79,1.15,19,1,3,0,1,0
3030261,965,-1750,-7115,1991,-748,-7115,2126.9,339.41,351.63,-123,-556,-6789,0,0,0,34.1336035,-118.1457103,1.47,0.78,1.15,19,1,3,0,1,0
3030361,982,-1750,-7142,2008,-748,-7142,2142.8,339.57,351.79,674,-1606,-6857,0,0,0,34.1336046,-118.1457105,0.98,355.70,1.15,19,1,3,0,1,0
3030461,912,-1672,-7157,1938,-670,-7157,2050.5,340.93,353.15,-120,-1100,-7540,0,0,0,34.1336061,-118.1457108,1.77,357.27,1.15,19,1,3,0,1,0
3030561,955,-1647,-7167,1981,-645,-7167,2083.4,341.97,354.18,-193,-915,-8388,0,0,0,34.1336074,-118.1457111,1.42,359.60,1.15,19,1,3,0,1,0
3030661,970,-1605,-7157,1996,-603,-7157,2085.1,343.19,355.41,61,-933,-8056,0,0,0,34.1336088,-118.1457114,1.78,354.50,1.15,19,1,3,0,1,0
3030761,955,-1620,-7102,1981,-618,-7102,2075.2,342.67,354.89,-76,-421,-7453,0,0,0,34.1336101,-118.1457117,2.48,350.75,1.15,19,1,3,0,1,0
3030861,1035,-1645,-7105,2061,-643,-7105,2159.0,342.67,354.89,-99,-368,-8151,0,0,0,34.1336119,-118.1457120,1.42,356.82,1.15,19,1,3,0,1,0
3030961,992,-1652,-7115,2018,-650,-7115,2120.1,342.15,354.36,482,-1481,-6935,0,0,0,34.1336134,-118.1457122,1.06,3.97,1.15,19,1,3,0,1,0
3031061,907,-1697,-7110,1933,-695,-7110,2054.1,340.22,352.44,-126,-1432,-6840,0,0,0,34.1336147,-118.1457120,1.13,10.36,1.23,18,1,3,0,1,0
3031161,837,-1652,-7142,1863,-650,-7142,1973.1,340.77,352.98,-36,-1333,-8355,0,0,0,34.1336166,-118.1457122,1.43,6.06,1.23,18,1,3,0,1,0
3031261,847,-1730,-7092,1873,-728,-7092,2009.5,338.76,350.98,-515,-1815,-7984,0,0,0,34.1336186,-118.1457132,1.97,352.99,1.23,18,1,3,0,1,0
3031361,880,-1735,-7072,1906,-733,-7072,2042.1,338.96,351.18,-22,-826,-7789,0,0,0,34.1336188,-118.1457138,1.75,355.65,1.34,17,1,3,0,1,0
3031461,965,-1647,-7070,1991,-645,-7070,2092.9,342.05,354.27,-8,268,-7624,0,0,0,34.1336180,-118.1457145,1.17,0.41,1.34,17,1,3,0,1,0
3031561,977,-1662,-7005,2003,-660,-7005,2108.9,341.76,353.98,343,-796,-7053,0,0,0,34.1336175,-118.1457151,1.18,3.91,1.34,17,1,3,0,1,0
3031661,982,-1590,-7060,2008,-588,-7060,2092.3,343.68,355.89,105,-1094,-6895,0,0,0,34.1336161,-118.1457160,1.37,4.64,1.34,17,1,3,0,1,0
3031761,1077,-1630,-7087,2103,-628,-7087,2194.8,343.37,355.59,-229,-763,-7753,0,0,0,34.1336151,-118.1457169,1.77,2.12,1.34,17,1,3,0,1,0
3031861,1007,-1630,-7027,2033,-628,-7027,2127.8,342.83,355.05,-176,-1410,-7831,0,0,0,34.1336144,-118.1457179,1.92,357.97,1.34,17,1,3,0,1,0
3031961,1002,-1630,-7060,2028,-628,-7060,2123.0,342.79,355.01,507,-892,-8436,0,0,0,34.1336136,-118.1457188,2.05,353.53,1.34,17,1,3,0,1,0
3032061,1062,-1725,-6990,2088,-723,-6990,2209.6,340.90,353.12,-433,-826,-6117,0,0,0,34.1336128,-118.1457199,1.73,347.47,1.34,17,1,3,0,1,0
3032161,1125,-1652,-6975,2151,-650,-6975,2247.1,343.19,355.40,423,-818,-7847,0,0,0,34.1336130,-118.1457203,1.44,357.00,1.34,17,1,3,0,1,0
3032261,1030,-1730,-7005,2056,-728,-7005,2181.1,340.50,352.72,-138,-1137,-6705,0,0,0,34.1336141,-118.1457208,0.95,4.84,1.34,17,1,3,0,1,0
3032361,1057,-1692,-6972,2083,-690,-6972,2194.3,341.67,353.89,103,-1208,-7650,0,0,0,34.1336153,-118.1457215,0.48,0.00,1.34,17,1,3,0,1,0
3032461,1025,-1765,-6995,2051,-763,-6995,2188.3,339.59,351.81,-323,-1107,-8054,0,0,0,34.1336167,-118.1457222,1.51,1.59,1.34,17,1,3,0,1,0
3032561,1062,-1687,-7005,2088,-685,-7005,2197.5,341.84,354.05,300,-6,-9519,0,0,0,34.1336179,-118.1457230,2.00,1.82,1.34,17,1,3,0,1,0
3032661,970,-1630,-7017,1996,-628,-7017,2092.5,342.53,354.75,381,-1211,-6797,0,0,0,34.1336193,-118.1457237,1.85,358.66,1.34,17,1,3,0,1,0
3032761,997,-1667,-7007,2023,-665,-7007,2129.5,341.80,354.02,190,40,-7232,0,0,0,34.1336205,-118.1457244,1.40,358.60,1.34,17,1,3,0,1,0
3032861,1115,-1662,-6985,2141,-660,-6985,2240.4,342.87,355.08,611,-1019,-7212,0,0,0,34.1336214,-118.1457251,1.23,352.00,1.34,17,1,3,0,1,0
3032961,1045,-1577,-7005,2071,-575,-7005,2149.3,344.48,356.70,200,-1070,-7261,0,0,0,34.1336225,-118.1457256,1.56,355.77,1.34,17,1,3,0,1,0
3033061,1082,-1557,-6952,2108,-555,-6952,2179.8,345.25,357.47,-11,-533,-7969,0,0,0,34.1336234,-118.1457261,1.63,6.19,1.34,17,1,3,0,1,0
3033161,1100,-1542,-7007,2126,-540,-7007,2193.5,345.75,357.96,-18,-742,-7870,0,0,0,34.1336240,-118.1457266,1.63,3.41,1.34,17,1,3,0,1,0
3033261,1162,-1360,-6910,2188,-358,-6910,2217.1,350.71,2.92,293,-279,-8175,0,0,0,34.1336247,-118.1457276,2.52,351.52,1.34,17,1,3,0,1,0
3033361,1200,-1387,-6972,2226,-385,-6972,2259.0,350.19,2.40,-205,-427,-7434,0,0,0,34.1336254,-118.1457289,3.03,340.35,1.34,17,1,3,0,1,0
3033461,1217,-1437,-6967,2243,-435,-6967,2284.8,349.02,1.24,693,-1145,-7086,0,0,0,34.1336260,-118.1457300,2.17,344.07,1.34,17,1,3,0,1,0
3033561,1175,-1417,-6915,2201,-415,-6915,2239.8,349.32,1.54,28,-972,-7283,0,0,0,34.1336265,-118.1457308,1.29,352.91,1.34,17,1,3,0,1,0
3033661,1142,-1427,-6980,2168,-425,-6980,2209.3,348.91,1.12,287,-1011,-8413,0,0,0,34.1336267,-118.1457313,0.87,357.56,1.34,17,1,3,0,1,0
3033761,1095,-1657,-7027,2121,-655,-7027,2219.8,342.84,355.05,-323,-1813,-7775,0,0,0,34.1336272,-118.1457318,1.65,2.53,1.34,17,1,3,0,1,0
3033861,1072,-1562,-7005,2098,-560,-7005,2171.5,345.05,357.27,244,255,-9183,0,0,0,34.1336276,-118.1457324,1.34,359.75,1.34,17,1,3,0,1,0
3033961,1007,-1600,-7022,2033,-598,-7022,2119.1,343.61,355.83,204,39,-7086,0,0,0,34.1336280,-118.1457330,1.49,0.56,1.34,17,1,3,0,1,0
3034061,1050,-1682,-6985,2076,-680,-6985,2184.5,341.86,354.08,-292,-705,-6468,0,0,0,34.1336283,-118.1457335,1.20,5.86,1.34,17,1,3,0,1,0
3034161,1035,-1615,-6995,2061,-613,-6995,2150.2,343.44,355.65,391,-1078,-6972,0,0,0,34.1336288,-118.1457338,1.29,0.86,1.34,17,1,3,0,1,0
3034261,1120,-1610,-6975,2146,-608,-6975,2230.5,344.18,356.40,-94,-982,-7464,0,0,0,34.1336296,-118.1457340,1.47,354.83,1.34,17,1,3,0,1,0
3034361,1137,-1615,-6940,2163,-613,-6940,2248.2,344.18,356.39,163,-1133,-8858,0,0,0,34.1336306,-118.1457340,1.47,352.82,1.34,17,1,3,0,1,0
3034461,1132,-1440,-6957,2158,-438,-6957,2202.0,348.53,0.74,22,-570,-8609,0,0,0,34.1336315,-118.1457342,1.58,353.55,1.34,17,1,3,0,1,0
3034561,1157,-1490,-6980,2183,-488,-6980,2236.9,347.40,359.62,110,-293,-6806,0,0,0,34.1336325,-118.1457344,1.43,357.20,1.34,17,1,3,0,1,0
3034661,1340,-1517,-6930,2366,-515,-6930,2421.4,347.72,359.94,160,-119,-8144,0,0,0,34.1336332,-118.1457343,0.94,355.08,1.34,17,1,3,0,1,0
3034761,1362,-1590,-6855,2388,-588,-6855,2459.3,346.17,358.38,530,-1205,-7156,0,0,0,34.1336341,-118.1457344,1.21,354.58,1.34,17,1,3,0,1,0
3034861,1302,-1517,-6930,2328,-515,-6930,2384.3,347.53,359.74,222,-943,-7459,0,0,0,34.1336350,-118.1457343,1.46,3.94,1.34,17,1,3,0,1,0
3034961,1297,-1580,-6935,2323,-578,-6935,2393.8,346.03,358.24,309,-945,-8217,0,0,0,34.1336360,-118.1457342,1.87,4.43,1.34,17,1,3,0,1,0
3035061,1307,-1615,-6870,2333,-613,-6870,2412.2,345.28,357.49,-440,-1506,-7549,0,0,0,34.1336372,-118.1457342,2.62,5.96,1.34,17,1,3,0,1,0
3035161,1372,-1595,-6887,2398,-593,-6887,2470.2,346.11,358.33,443,529,-9640,0,0,0,34.1336385,-118.1457341,2.71,8.29,1.34,17,1,3,0,1,0
3035261,1232,-1590,-6947,2258,-588,-6947,2333.3,345.40,357.62,-118,-605,-6505,0,0,0,34.1336395,-118.1457340,2.83,9.66,1.34,17,1,3,0,1,0
3035361,1275,-1615,-6920,2301,-613,-6920,2381.3,345.08,357.30,-667,-453,-6508,0,0,0,34.1336402,-118.1457337,1.70,15.76,1.34,17,1,3,0,1,0
3035461,1270,-1552,-6940,2296,-550,-6940,2361.0,346.53,358.74,198,-1134,-6977,0,0,0,34.1336412,-118.1457338,2.04,9.19,1.34,17,1,3,0,1,0
3035561,1270,-1507,-6957,2296,-505,-6957,2350.9,347.60,359.81,-558,-564,-7324,0,0,0,34.1336423,-118.1457341,1.66,359.01,1.34,17,1,3,0,1,0
3035661,1265,-1567,-6925,2291,-565,-6925,2359.6,346.15,358.36,126,-690,-8809,0,0,0,34.1336434,-118.1457344,1.46,352.89,1.34,17,1,3,0,1,0
3035761,1287,-1552,-6877,2313,-550,-6877,2377.5,346.62,358.84,771,-788,-9192,0,0,0,34.1336443,-118.1457347,1.62,351.13,1.34,17,1,3,0,1,0
3035861,1275,-1625,-6980,2301,-623,-6980,2383.8,344.85,357.07,-264,180,-7005,0,0,0,34.1336453,-118.1457349,1.63,355.37,1.34,17,1,3,0,1,0
3035961,1377,-1517,-6907,2403,-515,-6907,2457.6,347.90,0.12,444,216,-8604,0,0,0,34.1336463,-118.1457351,1.06,353.47,1.34,17,1,3,0,1,0
3036061,1340,-1600,-6915,2366,-598,-6915,2440.4,345.82,358.03,23,-935,-6404,0,0,0,34.1336471,-118.1457352,0.90,0.12,1.34,17,1,3,0,1,0
3036161,1325,-1610,-6947,2351,-608,-6947,2428.3,345.50,357.72,194,-946,-7097,0,0,0,34.1336480,-118.1457353,0.54,356.90,1.34,17,1,3,0,1,0
3036261,1312,-1595,-6920,2338,-593,-6920,2412.0,345.77,357.98,54,-865,-8712,0,0,0,34.1336513,-118.1457346,2.11,359.14,1.34,17,1,3,0,1,0
3036361,1255,-1707,-6925,2281,-705,-6925,2387.5,342.82,355.04,-440,-1954,-7637,0,0,0,34.1336537,-118.1457341,2.00,359.88,1.34,17,1,3,0,1,0
3036461,1212,-1687,-6920,2238,-685,-6920,2340.5,342.98,355.20,861,49,-8898,0,0,0,34.1336560,-118.1457336,1.50,359.74,1.34,17,1,3,0,1,0
3036561,1157,-1605,-6975,2183,-603,-6975,2264.8,344.56,356.77,6,171,-7344,0,0,0,34.1336583,-118.1457330,1.75,8.01,1.34,17,1,3,0,1,0
3036661,1185,-1635,-6940,2211,-633,-6940,2299.8,344.02,356.24,68,-610,-6634,0,0,0,34.1336605,-118.1457325,1.90,7.35,1.34,17,1,3,0,1,0
3036761,1190,-1600,-6910,2216,-598,-6910,2295.3,344.90,357.11,393,-1053,-6893,0,0,0,34.1336626,-118.1457321,2.03,1.85,1.34,17,1,3,0,1,0
3036861,1147,-1532,-6902,2173,-530,-6902,2236.7,346.29,358.51,188,-801,-7553,0,0,0,34.1336645,-118.1457318,1.47,0.30,1.34,17,1,3,0,1,0
3036961,1207,-1490,-6907,2233,-488,-6907,2285.7,347.67,359.89,139,-1162,-8432,0,0,0,34.1336661,-118.1457315,1.29,359.95,1.34,17,1,3,0,1,0
3037061,1287,-1360,-6875,2313,-358,-6875,2340.5,351.20,3.42,398,-782,-9034,0,0,0,34.1336681,-118.1457313,1.82,358.53,1.34,17,1,3,0,1,0
3037161,1232,-1387,-6842,2258,-385,-6842,2290.6,350.32,2.54,-766,-171,-6541,0,0,0,34.1336696,-118.1457311,1.73,359.55,1.34,17,1,3,0,1,0
3037261,1275,-1387,-6860,2301,-385,-6860,2333.0,350.50,2.72,288,131,-8328,0,0,0,34.1336712,-118.1457311,1.67,2.95,1.34,17,1,3,0,1,0
3037361,1307,-1437,-6832,2333,-435,-6832,2373.2,349.44,1.65,-99,-888,-6622,0,0,0,34.1336727,-118.1457310,1.77,358.42,1.34,17,1,3,0,1,0
3037461,1277,-1460,-6812,2303,-458,-6812,2348.1,348.75,0.97,82,-945,-7658,0,0,0,34.1336742,-118.1457310,1.50,355.10,1.34,17,1,3,0,1,0
3037561,1255,-1542,-6827,2281,-540,-6827,2344.0,346.68,358.90,140,-1058,-8261,0,0,0,34.1336757,-118.1457309,1.60,356.09,1.34,17,1,3,0,1,0
3037661,1185,-1647,-6875,2211,-645,-6875,2303.2,343.74,355.95,-49,-1431,-8214,0,0,0,34.1336770,-118.1457309,1.60,356.31,1.34,17,1,3,0,1,0
3037761,1202,-1595,-6855,2228,-593,-6855,2305.6,345.10,357.31,-135,316,-8337,0,0,0,34.1336784,-118.1457308,1.99,4.55,1.34,17,1,3,0,1,0
3037861,1212,-1567,-6845,2238,-565,-6845,2308.2,345.83,358.05,546,-174,-7277,0,0,0,34.1336799,-118.1457307,1.89,4.82,1.34,17,1,3,0,1,0
3037961,1307,-1532,-6752,2333,-530,-6752,2392.4,347.20,359.42,235,-408,-7236,0,0,0,34.1336813,-118.1457306,1.66,1.20,1.34,17,1,3,0,1,0
3038061,1330,-1485,-6845,2356,-483,-6845,2405.0,348.41,0.63,565,-1116,-7225,0,0,0,34.1336827,-118.1457306,1.77,358.49,1.34,17,1,3,0,1,0
3038161,1297,-1532,-6752,2323,-530,-6752,2382.7,347.15,359.36,121,-621,-7382,0,0,0,34.1336839,-118.1457306,1.60,356.58,1.34,17,1,3,0,1,0
3038261,1175,-1422,-6845,2201,-420,-6845,2240.7,349.20,1.41,267,-545,-8642,0,0,0,34.1336850,-118.1457306,1.44,359.99,1.34,17,1,3,0,1,0
3038361,1335,-1372,-6800,2361,-370,-6800,2389.8,351.09,3.31,264,-889,-8491,0,0,0,34.1336860,-118.1457305,1.33,6.20,1.34,17,1,3,0,1,0
3038461,1302,-1287,-6845,2328,-285,-6845,2345.4,353.02,5.24,-121,133,-7219,0,0,0,34.1336870,-118.1457302,1.87,1.52,1.34,17,1,3,0,1,0
3038561,1387,-1235,-6775,2413,-233,-6775,2424.2,354.48,6.70,-58,-89,-7874,0,0,0,34.1336879,-118.1457299,1.60,358.91,1.34,17,1,3,0,1,0
3038661,1452,-1325,-6772,2478,-323,-6772,2499.0,352.57,4.79,187,-936,-6834,0,0,0,34.1336887,-118.1457297,1.49,356.31,1.34,17,1,3,0,1,0
3038761,1367,-1412,-6762,2393,-410,-6762,2427.9,350.28,2.49,312,-517,-7677,0,0,0,34.1336895,-118.1457296,1.60,354.60,1.34,17,1,3,0,1,0
3038861,1320,-1402,-6832,2346,-400,-6832,2379.9,350.32,2.54,676,-1005,-8021,0,0,0,34.1336905,-118.1457295,1.93,357.67,1.34,17,1,3,0,1,0
3038961,1245,-1437,-6817,2271,-435,-6817,2312.3,349.16,1.37,-203,-1629,-7976,0,0,0,34.1336913,-118.1457293,1.63,0.01,1.34,17,1,3,0,1,0
3039061,1297,-1377,-6785,2323,-375,-6785,2353.1,350.83,3.05,141,348,-8857,0,0,0,34.1336925,-118.1457290,1.93,4.62,1.34,17,1,3,0,1,0
3039161,1345,-1427,-6740,2371,-425,-6740,2408.8,349.84,2.05,209,-326,-6849,0,0,0,34.1336935,-118.1457287,1.69,10.60,1.34,17,1,3,0,1,0
3039261,1395,-1305,-6715,2421,-303,-6715,2439.9,352.87,5.08,-271,-551,-7224,0,0,0,34.1336946,-118.1457285,1.39,10.50,1.34,17,1,3,0,1,0
3039361,1395,-1210,-6767,2421,-208,-6767,2429.9,355.09,7.31,539,-905,-7396,0,0,0,34.1336956,-118.1457284,1.51,3.21,1.34,17,1,3,0,1,0
3039461,1395,-1195,-6772,2421,-193,-6772,2428.7,355.44,7.66,299,-549,-7476,0,0,0,34.1336965,-118.1457284,1.21,0.65,1.34,17,1,3,0,1,0
3039561,1372,-1127,-6775,2398,-125,-6775,2401.3,357.02,9.23,266,-645,-8453,0,0,0,34.1336972,-118.1457284,1.26,353.87,1.34,17,1,3,0,1,0
3039661,1410,-1035,-6747,2436,-33,-6747,2436.2,359.22,11.44,374,-726,-8861,0,0,0,34.1336979,-118.1457285,1.06,347.74,1.34,17,1,3,0,1,0
3039761,1312,-982,-6800,2338,20,-6800,2338.1,0.49,12.71,-35,475,-7211,0,0,0,34.1336986,-118.1457285,1.43,357.43,1.34,17,1,3,0,1,0
3039861,1425,-982,-6730,2451,20,-6730,2451.1,0.47,12.68,231,-340,-7890,0,0,0,34.1336994,-118.1457283,1.52,9.94,1.34,17,1,3,0,1,0
3039961,1432,-955,-6735,2458,47,-6735,2458.4,1.10,13.31,294,-1116,-7052,0,0,0,34.1337001,-118.1457281,1.38,13.83,1.34,17,1,3,0,1,0
3040061,1420,-950,-6785,2446,52,-6785,2446.6,1.22,13.43,-205,-888,-6744,0,0,0,34.1337009,-118.1457280,1.19,2.82,1.34,17,1,3,0,1,0
3040161,1432,-935,-6772,2458,67,-6772,2458.9,1.56,13.78,150,-936,-8365,0,0,0,34.1337019,-118.1457280,1.24,350.05,1.34,17,1,3,0,1,0
3040261,1452,-1132,-6842,2478,-130,-6842,2481.4,357.00,9.21,-355,-1917,-7822,0,0,0,34.1337028,-118.1457280,1.48,349.72,1.34,17,1,3,0,1,0
3040361,1507,-1165,-6800,2533,-163,-6800,2538.2,356.32,8.53,521,89,-8760,0,0,0,34.1337034,-118.1457278,1.26,359.88,1.34,17,1,3,0,1,0
3040461,1555,-1080,-6795,2581,-78,-6795,2582.2,358.27,10.49,-283,182,-6790,0,0,0,34.1337039,-118.1457274,1.61,19.49,1.34,17,1,3,0,1,0
3040561,1672,-1045,-6827,2698,-43,-6827,2698.3,359.09,11.30,-21,-613,-7064,0,0,0,34.1337049,-118.1457272,1.92,20.23,1.34,17,1,3,0,1,0
3040661,1657,-1065,-6800,2683,-63,-6800,2683.7,358.65,10.87,-141,-793,-6987,0,0,0,34.1337060,-118.1457270,2.21,15.43,1.34,17,1,3,0,1,0
3040761,1770,-1080,-6800,2796,-78,-6800,2797.1,358.40,10.62,-49,-727,-7680,0,0,0,34.1337070,-118.1457269,2.33,9.15,1.34,17,1,3,0,1,0
3040861,1752,-1185,-6827,2778,-183,-6827,2784.0,356.23,8.45,362,-1405,-9054,0,0,0,34.1337081,-118.1457269,2.58,1.97,1.34,17,1,3,0,1,0
3040961,1765,-1210,-6870,2791,-208,-6870,2798.7,355.74,7.95,337,-578,-8721,0,0,0,34.1337089,-118.1457269,2.24,359.39,1.34,17,1,3,0,1,0
3041061,1780,-1247,-6832,2806,-245,-6832,2816.7,355.01,7.23,-1018,-228,-6076,0,0,0,34.1337097,-118.1457269,1.69,0.58,1.34,17,1,3,0,1,0
3041161,1775,-1257,-6845,2801,-255,-6845,2812.6,354.80,7.01,511,-15,-8299,0,0,0,34.1337103,-118.1457269,1.49,359.21,1.34,17,1,3,0,1,0
3041261,1705,-1335,-6845,2731,-333,-6845,2751.2,353.05,5.26,86,-988,-6458,0,0,0,34.1337107,-118.1457269,1.35,5.67,1.34,17,1,3,0,1,0
3041361,1725,-1392,-6925,2751,-390,-6925,2778.5,351.93,4.15,-32,-1198,-7622,0,0,0,34.1337113,-118.1457271,1.91,4.56,1.34,17,1,3,0,1,0
3041461,1687,-1427,-6892,2713,-425,-6892,2746.1,351.10,3.31,-400,-730,-8938,0,0,0,34.1337117,-118.1457273,1.64,358.63,1.34,17,1,3,0,1,0
3041561,1705,-1490,-6870,2731,-488,-6870,2774.3,349.87,2.08,63,-1199,-8891,0,0,0,34.1337123,-118.1457274,1.69,355.04,1.34,17,1,3,0,1,0
3041661,1640,-1522,-6882,2666,-520,-6882,2716.2,348.96,1.18,-486,-293,-7556,0,0,0,34.1337128,-118.1457276,1.65,349.42,1.34,17,1,3,0,1,0
3041761,1612,-1532,-6947,2638,-530,-6947,2690.7,348.64,0.86,-388,-216,-6380,0,0,0,34.1337135,-118.1457280,2.54,345.34,1.34,17,1,3,0,1,0
3041861,1672,-1507,-6902,2698,-505,-6902,2744.9,349.40,1.61,182,-744,-6998,0,0,0,34.1337140,-118.1457284,2.32,346.02,1.34,17,1,3,0,1,0
3041961,1607,-1475,-6952,2633,-473,-6952,2675.1,349.82,2.03,-163,-1244,-6916,0,0,0,34.1337143,-118.1457284,1.93,351.74,1.34,17,1,3,0,1,0
3042061,1682,-1517,-6897,2708,-515,-6897,2756.5,349.23,1.45,-264,-661,-8420,0,0,0,34.1337147,-118.1457288,1.84,348.05,1.34,17,1,3,0,1,0
3042161,1652,-1445,-6930,2678,-443,-6930,2714.4,350.61,2.82,-728,-771,-8347,0,0,0,34.1337151,-118.1457289,1.49,351.49,1.34,17,1,3,0,1,0
3042261,1555,-1495,-6952,2581,-493,-6952,2627.7,349.19,1.40,214,243,-8139,0,0,0,34.1337160,-118.1457292,1.73,344.63,1.34,17,1,3,0,1,0
3042361,1565,-1552,-6957,2591,-550,-6957,2648.7,348.02,0.23,-99,-1017,-6821,0,0,0,34.1337166,-118.1457293,1.05,348.74,1.34,17,1,3,0,1,0
3042461,1447,-1590,-6972,2473,-588,-6972,2541.9,346.63,358.84,434,-853,-6598,0,0,0,34.1337173,-118.1457296,1.59,344.98,1.34,17,1,3,0,1,0
3042561,1485,-1527,-6975,2511,-525,-6975,2565.3,348.19,0.41,-179,-871,-6595,0,0,0,34.1337178,-118.1457297,0.73,348.94,1.34,17,1,3,0,1,0
3042662,1470,-1460,-6980,2496,-458,-6980,2537.7,349.60,1.82,557,-1482,-8101,0,0,0,34.1337184,-118.1457297,0.79,353.95,1.34,17,1,3,0,1,0
3042761,1415,-1557,-6980,2441,-555,-6980,2503.3,347.19,359.41,-734,-1755,-8570,0,0,0,34.1337192,-118.1457298,0.99,358.44,1.34,17,1,3,0,1,0
3042861,1540,-1517,-7000,2566,-515,-7000,2617.2,348.65,0.87,-141,87,-9540,0,0,0,34.1337200,-118.1457297,1.20,5.15,1.34,17,1,3,0,1,0
3042961,1512,-1605,-6940,2538,-603,-6940,2608.6,346.63,358.85,156,-118,-7633,0,0,0,34.1337209,-118.1457296,1.04,2.55,1.34,17,1,3,0,1,0
3043062,1550,-1605,-6947,2576,-603,-6947,2645.6,346.83,359.04,-425,1034,-6702,0,0,0,34.1337218,-118.1457297,0.86,6.23,1.34,17,1,3,0,1,0
3043161,1565,-1557,-6925,2591,-555,-6925,2649.8,347.91,0.13,469,-427,-6999,0,0,0,34.1337226,-118.1457297,0.85,12.88,1.45,16,1,3,0,1,0
3043261,1607,-1562,-6827,2633,-560,-6827,2691.9,347.99,0.21,-211,-714,-7245,0,0,0,34.1337230,-118.1457297,0.63,15.82,1.34,17,1,3,0,1,0
3043361,1577,-1590,-6897,2603,-588,-6897,2668.6,347.27,359.49,38,-748,-7460,0,0,0,34.1337233,-118.1457298,0.76,0.00,1.34,17,1,3,0,1,0
3043461,1652,-1572,-6882,2678,-570,-6882,2738.0,347.98,0.20,392,-132,-8625,0,0,0,34.1337238,-118.1457298,1.40,0.00,1.34,17,1,3,0,1,0
3043561,1667,-1427,-6865,2693,-425,-6865,2726.3,351.03,3.25,217,-536,-9071,0,0,0,34.1337241,-118.1457299,1.03,0.00,1.34,17,1,3,0,1,0
3043661,1657,-1500,-6897,2683,-498,-6897,2728.8,349.48,1.70,290,-624,-6595,0,0,0,34.1337246,-118.1457300,1.10,0.00,1.34,17,1,3,0,1,0
3043761,1645,-1500,-6827,2671,-498,-6827,2717.0,349.44,1.65,-180,-144,-6922,0,0,0,34.1337249,-118.1457301,1.11,0.00,1.34,17,1,3,0,1,0
3043861,1757,-1412,-6827,2783,-410,-6827,2813.0,351.62,3.84,68,-339,-7517,0,0,0,34.1337252,-118.1457302,1.23,0.00,1.34,17,1,3,0,1,0
3043961,1765,-1455,-6812,2791,-453,-6812,2827.5,350.78,3.00,396,-807,-6900,0,0,0,34.1337258,-118.1457304,1.04,0.00,1.34,17,1,3,0,1,0
3044061,1762,-1455,-6807,2788,-453,-6807,2824.6,350.77,2.99,528,-795,-7847,0,0,0,34.1337264,-118.1457306,0.70,0.00,1.34,17,1,3,0,1,0
3044161,1732,-1397,-6855,2758,-395,-6855,2786.1,351.85,4.07,306,-703,-8168,0,0,0,34.1337268,-118.1457306,0.64,0.00,1.34,17,1,3,0,1,0
3044261,1662,-1500,-6822,2688,-498,-6822,2733.7,349.50,1.72,109,-554,-8186,0,0,0,34.1337274,-118.1457307,0.23,0.00,1.34,17,1,3,0,1,0
3044361,1602,-1450,-6845,2628,-448,-6845,2665.9,350.33,2.54,140,-706,-8021,0,0,0,34.1337277,-118.1457306,0.35,0.00,1.34,17,1,3,0,1,0
3044461,1705,-1272,-6850,2731,-270,-6850,2744.3,354.35,6.57,-103,535,-7490,0,0,0,34.1337284,-118.1457308,0.84,0.00,1.45,16,1,3,0,1,0
3044561,1720,-1267,-6850,2746,-265,-6850,2758.8,354.49,6.70,442,-384,-7358,0,0,0,34.1337291,-118.1457309,0.90,355.07,1.34,17,1,3,0,1,0
3044661,1672,-1302,-6832,2698,-300,-6832,2714.6,353.66,5.87,418,-950,-6780,0,0,0,34.1337299,-118.1457310,0.84,0.00,1.34,17,1,3,0,1,0
3044761,1540,-1195,-6907,2566,-193,-6907,2573.2,355.70,7.91,396,15,-7978,0,0,0,34.1337304,-118.1457310,0.48,0.00,1.34,17,1,3,0,1,0
3044861,1470,-1235,-6915,2496,-233,-6915,2506.9,354.67,6.88,510,-1003,-7343,0,0,0,34.1337309,-118.1457309,0.95,0.00,1.34,17,1,3,0,1,0
3044961,1522,-1185,-6870,2548,-183,-6870,2554.6,355.89,8.11,1288,-1250,-8449,0,0,0,34.1337318,-118.1457310,1.68,3.41,1.34,17,1,3,0,1,0
3045061,1625,-1165,-6915,2651,-163,-6915,2656.0,356.48,8.70,-381,-378,-6753,0,0,0,34.1337325,-118.1457315,1.40,341.40,1.34,17,1,3,0,1,0
3045161,1640,-1225,-6842,2666,-223,-6842,2675.3,355.22,7.43,493,-523,-7884,0,0,0,34.1337333,-118.1457315,1.16,347.74,1.45,16,1,3,0,1,0
3045261,1550,-1252,-6827,2576,-250,-6827,2588.1,354.46,6.67,-73,-649,-7025,0,0,0,34.1337341,-118.1457317,1.03,350.92,1.45,16,1,3,0,1,0
3045361,1537,-1277,-6902,2563,-275,-6902,2577.7,353.88,6.09,744,-1001,-8155,0,0,0,34.1337349,-118.1457319,0.75,0.00,1.45,16,1,3,0,1,0
3045461,1340,-1460,-6947,2366,-458,-6947,2409.9,349.04,1.26,682,-1413,-7769,0,0,0,34.1337355,-118.1457320,0.83,0.00,1.45,16,1,3,0,1,0
3045561,1410,-1402,-6887,2436,-400,-6887,2468.6,350.68,2.89,89,255,-9289,0,0,0,34.1337361,-118.1457321,1.31,1.70,1.45,16,1,3,0,1,0
3045661,1447,-1320,-6870,2473,-318,-6870,2493.4,352.67,4.89,-344,-226,-7478,0,0,0,34.1337368,-118.1457323,1.65,358.07,1.45,16,1,3,0,1,0
3045761,1447,-1412,-6855,2473,-410,-6855,2506.8,350.59,2.80,-299,-764,-6383,0,0,0,34.1337373,-118.1457324,1.06,359.09,1.45,16,1,3,0,1,0
3045861,1540,-1292,-6952,2566,-290,-6952,2582.3,353.55,5.77,180,-864,-7078,0,0,0,34.1337380,-118.1457326,1.05,353.60,1.45,16,1,3,0,1,0
3045961,1475,-1287,-6915,2501,-285,-6915,2517.2,353.50,5.72,114,-519,-7698,0,0,0,34.1337386,-118.1457329,1.34,352.48,1.45,16,1,3,0,1,0
3046061,1357,-1335,-6952,2383,-333,-6952,2406.2,352.05,4.26,571,-1045,-8424,0,0,0,34.1337391,-118.1457328,1.63,355.48,1.45,16,1,3,0,1,0
3046161,1405,-1325,-6882,2431,-323,-6882,2452.4,352.43,4.65,460,-1143,-8939,0,0,0,34.1337396,-118.1457328,1.63,354.27,1.45,16,1,3,0,1,0
3046261,1387,-1392,-6942,2413,-390,-6942,2444.3,350.82,3.04,-224,-53,-7010,0,0,0,34.1337403,-118.1457331,1.25,346.95,1.45,16,1,3,0,1,0
3046361,1425,-1417,-6832,2451,-415,-6832,2485.9,350.39,2.61,549,-573,-8015,0,0,0,34.1337409,-118.1457333,1.36,346.52,1.45,16,1,3,0,1,0
3046461,1447,-1370,-6877,2473,-368,-6877,2500.2,351.54,3.75,126,-694,-6976,0,0,0,34.1337409,-118.1457337,0.38,0.00,1.45,16,1,3,0,1,0
3046561,1420,-1350,-6902,2446,-348,-6902,2470.6,351.90,4.12,31,-1063,-7361,0,0,0,34.1337415,-118.1457339,1.03,335.39,1.49,15,1,3,0,1,0
3046661,1387,-1365,-6920,2413,-363,-6920,2440.2,351.44,3.66,130,-1096,-8731,0,0,0,34.1337430,-118.1457338,2.97,357.86,1.45,16,1,3,0,1,0
3046761,1362,-1372,-6892,2388,-370,-6892,2416.5,351.19,3.41,229,-596,-8800,0,0,0,34.1337446,-118.1457336,2.81,8.57,1.45,16,1,3,0,1,0
3046861,1315,-1422,-6940,2341,-420,-6940,2378.4,349.83,2.04,156,-918,-7238,0,0,0,34.1337460,-118.1457334,2.19,9.28,1.45,16,1,3,0,1,0
3046961,1405,-1427,-6925,2431,-425,-6925,2467.9,350.08,2.30,-267,149,-7273,0,0,0,34.1337469,-118.1457333,1.72,6.53,1.45,16,1,3,0,1,0
3047061,1475,-1427,-6887,2501,-425,-6887,2536.9,350.36,2.57,452,-770,-7079,0,0,0,34.1337475,-118.1457332,1.20,8.78,1.34,17,1,3,0,1,0
3047161,1350,-1407,-6935,2376,-405,-6935,2410.3,350.33,2.54,613,-976,-7332,0,0,0,34.1337483,-118.1457333,1.13,0.24,1.34,17,1,3,0,1,0
3047261,1297,-1422,-6952,2323,-420,-6952,2360.7,349.75,1.97,293,-400,-8049,0,0,0,34.1337490,-118.1457334,1.31,353.56,1.34,17,1,3,0,1,0
3047361,1470,-1340,-6942,2496,-338,-6942,2518.8,352.29,4.50,126,-739,-9187,0,0,0,34.1337498,-118.1457335,1.80,350.00,1.34,17,1,3,0,1,0
3047461,1410,-1297,-6920,2436,-295,-6920,2453.8,353.10,5.31,501,317,-7730,0,0,0,34.1337511,-118.1457334,1.96,355.80,1.34,17,1,3,0,1,0
3047561,1437,-1297,-6902,2463,-295,-6902,2480.6,353.17,5.39,467,-917,-7551,0,0,0,34.1337522,-118.1457332,1.52,353.28,1.34,17,1,3,0,1,0
3047661,1382,-1370,-6952,2408,-368,-6952,2436.0,351.31,3.53,452,-1152,-6564,0,0,0,34.1337529,-118.1457331,1.51,3.99,1.34,17,1,3,0,1,0
3047761,1287,-1402,-6957,2313,-400,-6957,2347.3,350.19,2.40,64,-1054,-6990,0,0,0,34.1337537,-118.1457325,1.60,13.22,1.34,17,1,3,0,1,0
3047861,1227,-1465,-6940,2253,-463,-6940,2300.1,348.39,0.60,272,-1618,-8564,0,0,0,34.1337545,-118.1457322,1.75,10.44,1.34,17,1,3,0,1,0
3047961,1250,-1522,-6957,2276,-520,-6957,2334.6,347.13,359.35,-185,-923,-8746,0,0,0,34.1337551,-118.1457320,1.75,9.59,1.34,17,1,3,0,1,0
3048061,1265,-1437,-6925,2291,-435,-6925,2331.9,349.25,1.47,-16,-730,-7602,0,0,0,34.1337564,-118.1457317,2.12,10.98,1.34,17,1,3,0,1,0
3048161,1312,-1445,-6957,2338,-443,-6957,2379.6,349.27,1.49,-495,186,-7078,0,0,0,34.1337575,-118.1457313,1.96,14.72,1.34,17,1,3,0,1,0
3048261,1420,-1382,-6882,2446,-380,-6882,2475.3,351.17,3.39,229,-677,-7017,0,0,0,34.1337583,-118.1457308,1.60,13.86,1.34,17,1,3,0,1,0
3048361,1352,-1412,-6915,2378,-410,-6915,2413.1,350.22,2.43,476,-1090,-7057,0,0,0,34.1337586,-118.1457307,1.35,6.34,1.34,17,1,3,0,1,0
3048461,1345,-1407,-6935,2371,-405,-6935,2405.3,350.31,2.52,121,-726,-8518,0,0,0,34.1337592,-118.1457306,1.69,1.70,1.34,17,1,3,0,1,0
3048561,1312,-1382,-6940,2338,-380,-6940,2368.7,350.77,2.98,112,-1531,-7565,0,0,0,34.1337599,-118.1457307,1.61,1.40,1.34,17,1,3,0,1,0
3048661,1357,-1235,-6915,2383,-233,-6915,2394.4,354.42,6.63,737,-176,-8473,0,0,0,34.1337607,-118.1457307,1.35,11.01,1.34,17,1,3,0,1,0
3048761,1500,-1262,-6920,2526,-260,-6920,2539.3,354.12,6.34,-327,-952,-7418,0,0,0,34.1337612,-118.1457306,0.83,12.45,1.34,17,1,3,0,1,0
3048861,1315,-1345,-6967,2341,-343,-6967,2366.0,351.66,3.88,581,-1242,-6555,0,0,0,34.1337616,-118.1457304,0.69,6.27,1.34,17,1,3,0,1,0
3048961,1277,-1402,-6975,2303,-400,-6975,2337.5,350.15,2.36,-120,-1159,-6463,0,0,0,34.1337624,-118.1457305,1.18,0.37,1.34,17,1,3,0,1,0
3049061,1287,-1455,-6967,2313,-453,-6967,2356.9,348.92,1.14,665,-1665,-8235,0,0,0,34.1337632,-118.1457305,1.66,3.13,1.34,17,1,3,0,1,0
3049161,1287,-1432,-6925,2313,-430,-6925,2352.6,349.47,1.68,-257,-1706,-8486,0,0,0,34.1337639,-118.1457303,1.78,3.67,1.34,17,1,3,0,1,0
3049261,1335,-1465,-6870,2361,-463,-6870,2406.0,348.90,1.12,347,-528,-7755,0,0,0,34.1337647,-118.1457301,2.30,4.82,1.34,17,1,3,0,1,0
3049361,1387,-1440,-6910,2413,-438,-6910,2452.4,349.71,1.93,162,652,-7642,0,0,0,34.1337656,-118.1457298,1.88,3.02,1.34,17,1,3,0,1,0
3049461,1502,-1360,-6875,2528,-358,-6875,2553.2,351.94,4.16,632,-771,-7042,0,0,0,34.1337665,-118.1457294,2.04,7.71,1.34,17,1,3,0,1,0
3049561,1442,-1335,-6892,2468,-333,-6892,2490.4,352.32,4.53,595,-776,-7232,0,0,0,34.1337672,-118.1457291,1.52,9.87,1.34,17,1,3,0,1,0
3049661,1502,-1402,-6935,2528,-400,-6935,2559.4,351.01,3.22,193,-551,-7366,0,0,0,34.1337678,-118.1457290,1.61,359.43,1.34,17,1,3,0,1,0
3049761,1415,-1392,-6897,2441,-390,-6897,2472.0,350.92,3.14,844,-1393,-8423,0,0,0,34.1337686,-118.1457290,2.17,349.74,1.34,17,1,3,0,1,0
3049861,1427,-1365,-6882,2453,-363,-6882,2479.7,351.58,3.80,722,-662,-8741,0,0,0,34.1337691,-118.1457291,1.83,348.25,1.34,17,1,3,0,1,0
3049961,1420,-1445,-6942,2446,-443,-6942,2485.8,349.73,1.95,-543,-414,-6127,0,0,0,34.1337698,-118.1457290,1.07,358.25,1.34,17,1,3,0,1,0
3050061,1490,-1392,-6845,2516,-390,-6845,2546.0,351.19,3.40,288,-574,-7730,0,0,0,34.1337701,-118.1457287,0.96,5.11,1.34,17,1,3,0,1,0
3050161,1457,-1315,-6877,2483,-313,-6877,2502.7,352.82,5.03,-59,-840,-6908,0,0,0,34.1337711,-118.1457284,1.80,12.50,1.34,17,1,3,0,1,0
3050261,1470,-1450,-6910,2496,-448,-6910,2535.9,349.82,2.04,-189,-1132,-8284,0,0,0,34.1337725,-118.1457281,2.20,11.70,1.34,17,1,3,0,1,0
3050361,1425,-1567,-6892,2451,-565,-6892,2515.3,347.02,359.24,-81,-1080,-8661,0,0,0,34.1337739,-118.1457279,2.24,6.34,1.34,17,1,3,0,1,0
3050461,1362,-1600,-6875,2388,-598,-6875,2461.7,345.94,358.16,152,-268,-8814,0,0,0,34.1337751,-118.1457278,1.30,0.98,1.34,17,1,3,0,1,0
3050561,1287,-1677,-6935,2313,-675,-6935,2409.5,343.73,355.95,-205,-680,-6583,0,0,0,34.1337765,-118.1457276,2.17,356.60,1.34,17,1,3,0,1,0
3050661,1405,-1562,-6910,2431,-560,-6910,2494.7,347.03,359.24,-388,-438,-6297,0,0,0,34.1337781,-118.1457274,2.59,358.83,1.34,17,1,3,0,1,0
3050761,1372,-1522,-6875,2398,-520,-6875,2453.7,347.76,359.98,465,-472,-7576,0,0,0,34.1337796,-118.1457274,1.78,358.72,1.34,17,1,3,0,1,0
3050861,1425,-1682,-6930,2451,-680,-6930,2543.6,344.49,356.71,331,-778,-7535,0,0,0,34.1337811,-118.1457274,1.81,357.16,1.34,17,1,3,0,1,0
3050961,1330,-1645,-6827,2356,-643,-6827,2442.2,344.73,356.95,-189,-778,-8938,0,0,0,34.1337824,-118.1457273,1.79,358.77,1.34,17,1,3,0,1,0
3051061,1452,-1635,-6887,2478,-633,-6887,2557.6,345.67,357.89,544,-761,-9031,0,0,0,34.1337838,-118.1457273,1.90,359.92,1.34,17,1,3,0,1,0
3051161,1420,-1580,-6902,2446,-578,-6902,2513.4,346.70,358.92,-233,-12,-6723,0,0,0,34.1337851,-118.1457272,1.37,1.15,1.34,17,1,3,0,1,0
3051261,1475,-1507,-6807,2501,-505,-6807,2551.5,348.58,0.80,-138,-289,-7914,0,0,0,34.1337862,-118.1457270,2.24,3.13,1.34,17,1,3,0,1,0
3051361,1480,-1645,-6805,2506,-643,-6805,2587.2,345.61,357.83,59,-1063,-6871,0,0,0,34.1337872,-118.1457268,1.91,0.93,1.34,17,1,3,0,1,0
3051461,1415,-1692,-6887,2441,-690,-6887,2536.6,344.22,356.43,-156,-1109,-7215,0,0,0,34.1337891,-118.1457264,1.78,1.05,1.34,17,1,3,0,1,0
3051561,1357,-1730,-6892,2383,-728,-6892,2491.7,343.01,355.23,369,-883,-9108,0,0,0,34.1337910,-118.1457260,2.43,1.67,1.34,17,1,3,0,1,0
3051661,1372,-1692,-6827,2398,-690,-6827,2495.3,343.95,356.16,119,-1044,-8525,0,0,0,34.1337928,-118.1457259,2.39,1.13,1.34,17,1,3,0,1,0
3051761,1400,-1775,-6875,2426,-773,-6875,2546.2,342.33,354.54,-30,-687,-7418,0,0,0,34.1337940,-118.1457259,1.90,358.36,1.34,17,1,3,0,1,0
3051861,1437,-1645,-6887,2463,-643,-6887,2545.5,345.37,357.58,-636,909,-7161,0,0,0,34.1337949,-118.1457259,1.53,2.90,1.34,17,1,3,0,1,0
3051961,1512,-1615,-6842,2538,-613,-6842,2611.0,346.42,358.64,76,-1101,-6934,0,0,0,34.1337956,-118.1457256,1.96,8.40,1.34,17,1,3,0,1,0
3052061,1465,-1605,-6832,2491,-603,-6832,2562.9,346.39,358.61,233,-1467,-6945,0,0,0,34.1337968,-118.1457256,2.02,0.55,1.34,17,1,3,0,1,0
3052161,1462,-1527,-6855,2488,-525,-6855,2542.8,348.08,0.30,-235,-234,-8264,0,0,0,34.1337980,-118.1457257,1.74,356.56,1.34,17,1,3,0,1,0
3052261,1447,-1532,-6817,2473,-530,-6817,2529.2,347.90,0.12,-299,-1406,-8063,0,0,0,34.1337989,-118.1457256,1.27,355.10,1.34,17,1,3,0,1,0
3052361,1465,-1522,-6865,2491,-520,-6865,2544.7,348.21,0.42,476,9,-8207,0,0,0,34.1337998,-118.1457255,1.52,359.05,1.34,17,1,3,0,1,0
3052461,1452,-1455,-6812,2478,-453,-6812,2519.1,349.64,1.86,-143,-1194,-6891,0,0,0,34.1338007,-118.1457254,1.66,3.30,1.34,17,1,3,0,1,0
3052561,1470,-1577,-6860,2496,-575,-6860,2561.4,347.03,359.24,166,-918,-6912,0,0,0,34.1338016,-118.1457253,1.81,358.60,1.34,17,1,3,0,1,0
3052661,1437,-1595,-6822,2463,-593,-6822,2533.4,346.46,358.68,-168,-1066,-6506,0,0,0,34.1338020,-118.1457250,0.72,359.10,1.34,17,1,3,0,1,0
3052761,1442,-1620,-6807,2468,-618,-6807,2544.2,345.94,358.16,469,-1899,-8274,0,0,0,34.1338026,-118.1457249,0.70,354.83,1.34,17,1,3,0,1,0
3052861,1405,-1745,-6807,2431,-743,-6807,2542.0,343.00,355.22,-812,-1371,-7846,0,0,0,34.1338037,-118.1457248,1.84,2.28,1.34,17,1,3,0,1,0
3052961,1410,-1692,-6827,2436,-690,-6827,2531.8,344.19,356.40,257,85,-8974,0,0,0,34.1338052,-118.1457250,2.48,358.36,1.34,17,1,3,0,1,0
3053061,1480,-1750,-6772,2506,-748,-6772,2615.3,343.38,355.60,-85,574,-7145,0,0,0,34.1338064,-118.1457247,2.03,5.02,1.34,17,1,3,0,1,0
3053161,1537,-1720,-6775,2563,-718,-6775,2661.7,344.35,356.57,-122,-694,-6533,0,0,0,34.1338073,-118.1457245,1.46,1.22,1.34,17,1,3,0,1,0
3053261,1555,-1702,-6822,2581,-700,-6822,2674.2,344.83,357.04,463,-1049,-7232,0,0,0,34.1338081,-118.1457244,1.38,353.82,1.34,17,1,3,0,1,0
3053361,1475,-1647,-6812,2501,-645,-6812,2582.8,345.54,357.75,-155,-567,-7600,0,0,0,34.1338092,-118.1457244,1.60,355.07,1.34,17,1,3,0,1,0
3053461,1512,-1527,-6832,2538,-525,-6832,2591.7,348.31,0.53,-679,-1160,-8081,0,0,0,34.1338104,-118.1457242,2.04,358.72,1.34,17,1,3,0,1,0
3053561,1502,-1470,-6817,2528,-468,-6817,2571.0,349.51,1.73,600,197,-9202,0,0,0,34.1338116,-118.1457242,2.11,356.20,1.34,17,1,3,0,1,0
3053661,1540,-1562,-6850,2566,-560,-6850,2626.4,347.69,359.91,-59,-1350,-6228,0,0,0,34.1338123,-118.1457240,0.95,355.07,1.34,17,1,3,0,1,0
3053761,1485,-1620,-6832,2511,-618,-6832,2585.9,346.17,358.39,266,-771,-6949,0,0,0,34.1338131,-118.1457240,1.10,354.80,1.34,17,1,3,0,1,0
3053861,1410,-1667,-6845,2436,-665,-6845,2525.1,344.73,356.95,-162,-912,-6742,0,0,0,34.1338137,-118.1457238,1.12,356.57,1.34,17,1,3,0,1,0
3053961,1350,-1735,-6860,2376,-733,-6860,2486.5,342.85,355.07,496,-1413,-8483,0,0,0,34.1338146,-118.1457235,2.07,3.26,1.34,17,1,3,0,1,0
3054061,1425,-1682,-6855,2451,-680,-6855,2543.6,344.49,356.71,49,-1663,-8495,0,0,0,34.1338154,-118.1457233,2.14,2.00,1.34,17,1,3,0,1,0
3054161,1345,-1750,-6907,2371,-748,-6907,2486.2,342.49,354.71,77,-719,-7735,0,0,0,34.1338164,-118.1457231,2.05,5.92,1.34,17,1,3,0,1,0
3054261,1350,-1625,-6850,2376,-623,-6850,2456.3,345.31,357.52,-456,508,-6876,0,0,0,34.1338175,-118.1457229,2.40,7.85,1.34,17,1,3,0,1,0
3054361,1427,-1557,-6870,2453,-555,-6870,2515.0,347.25,359.47,-208,-854,-6535,0,0,0,34.1338186,-118.1457229,1.20,5.05,1.34,17,1,3,0,1,0
3054461,1437,-1635,-6877,2463,-633,-6877,2543.0,345.59,357.80,-76,-1035,-7103,0,0,0,34.1338196,-118.1457227,1.15,5.00,1.34,17,1,3,0,1,0
3054561,1452,-1657,-6915,2478,-655,-6915,2563.1,345.19,357.41,-25,-1032,-7782,0,0,0,34.1338205,-118.1457228,0.79,354.11,1.34,17,1,3,0,1,0
3054662,1367,-1507,-6887,2393,-505,-6887,2445.7,348.08,0.30,430,-1567,-8418,0,0,0,34.1338216,-118.1457230,1.63,344.74,1.34,17,1,3,0,1,0
3054761,1387,-1475,-6967,2413,-473,-6967,2458.9,348.91,1.13,379,-490,-8453,0,0,0,34.1338226,-118.1457231,1.09,341.20,1.34,17,1,3,0,1,0
3054861,1447,-1552,-6967,2473,-550,-6967,2533.4,347.46,359.68,-647,-1029,-5927,0,0,0,34.1338234,-118.1457232,0.75,344.46,1.34,17,1,3,0,1,0
3054961,1462,-1512,-6892,2488,-510,-6892,2539.7,348.42,0.63,706,-888,-7798,0,0,0,34.1338244,-118.1457233,0.85,350.72,1.34,17,1,3,0,1,0
3055061,1390,-1532,-6920,2416,-530,-6920,2473.5,347.63,359.84,-142,-998,-6446,0,0,0,34.1338252,-118.1457233,1.07,1.43,1.34,17,1,3,0,1,0
3055161,1415,-1475,-6942,2441,-473,-6942,2486.4,349.03,1.25,584,-1275,-7895,0,0,0,34.1338263,-118.1457234,1.51,356.41,1.34,17,1,3,0,1,0
3055261,1415,-1620,-6962,2441,-618,-6962,2518.0,345.79,358.01,11,-1530,-8077,0,0,0,34.1338272,-118.1457236,2.45,355.02,1.34,17,1,3,0,1,0
3055361,1507,-1557,-6972,2533,-555,-6972,2593.1,347.64,359.86,29,-47,-9045,0,0,0,34.1338279,-118.1457235,1.98,0.45,1.34,17,1,3,0,1,0
3055461,1507,-1445,-6957,2533,-443,-6957,2571.4,350.08,2.30,-128,-663,-6817,0,0,0,34.1338283,-118.1457233,1.32,9.96,1.34,17,1,3,0,1,0
3055561,1540,-1505,-6897,2566,-503,-6897,2614.8,348.91,1.13,-476,-379,-6632,0,0,0,34.1338286,-118.1457230,1.15,7.92,1.34,17,1,3,0,1,0
3055661,1555,-1417,-6915,2581,-415,-6915,2614.2,350.87,3.08,466,-1014,-6960,0,0,0,34.1338293,-118.1457229,1.52,3.44,1.34,17,1,3,0,1,0
3055761,1457,-1455,-6962,2483,-453,-6962,2524.0,349.66,1.88,75,-829,-7116,0,0,0,34.1338297,-118.1457228,1.00,351.02,1.34,17,1,3,0,1,0
3055861,1447,-1445,-6967,2473,-443,-6967,2512.4,349.84,2.06,321,-1031,-8581,0,0,0,34.1338309,-118.1457228,2.37,352.92,1.34,17,1,3,0,1,0
3055961,1560,-1282,-6930,2586,-280,-6930,2601.1,353.82,6.04,479,-109,-9378,0,0,0,34.1338320,-118.1457228,2.74,358.65,1.34,17,1,3,0,1,0
3056061,1537,-1427,-6947,2563,-425,-6947,2598.0,350.58,2.80,-326,-755,-6430,0,0,0,34.1338333,-118.1457233,2.19,354.23,1.34,17,1,3,0,1,0
3056161,1597,-1325,-6942,2623,-323,-6942,2642.8,352.98,5.20,448,-159,-7867,0,0,0,34.1338344,-118.1457234,2.20,355.61,1.34,17,1,3,0,1,0
3056261,1555,-1422,-6975,2581,-420,-6975,2614.9,350.76,2.97,-57,-972,-5827,0,0,0,34.1338356,-118.1457235,2.11,358.09,1.21,18,1,3,0,1,0
3056361,1587,-1335,-6995,2613,-333,-6995,2634.1,352.74,4.95,453,-986,-8410,0,0,0,34.1338366,-118.1457235,2.14,1.44,1.21,18,1,3,0,1,0
3056461,1465,-1517,-6995,2491,-515,-6995,2543.7,348.32,0.54,51,-1200,-8484,0,0,0,34.1338377,-118.1457237,2.18,0.98,1.21,18,1,3,0,1,0
3056561,1437,-1572,-6975,2463,-570,-6975,2528.1,346.97,359.19,374,59,-9659,0,0,0,34.1338387,-118.1457237,1.99,0.19,1.21,18,1,3,0,1,0
3056661,1442,-1507,-7017,2468,-505,-7017,2519.1,348.44,0.65,-278,22,-6580,0,0,0,34.1338397,-118.1457236,2.13,2.14,1.21,18,1,3,0,1,0
3056761,1490,-1507,-6947,2516,-505,-6947,2566.2,348.65,0.87,75,-583,-6409,0,0,0,34.1338408,-118.1457233,2.67,6.46,1.21,18,1,3,0,1,0
3056861,1502,-1512,-6995,2528,-510,-6995,2578.9,348.59,0.81,502,-982,-6970,0,0,0,34.1338420,-118.1457231,2.05,7.92,1.21,18,1,3,0,1,0
3056961,1442,-1552,-6990,2468,-550,-6990,2528.5,347.44,359.65,-232,-654,-7426,0,0,0,34.1338429,-118.1457230,1.35,2.49,1.21,18,1,3,0,1,0
3057061,1452,-1500,-6972,2478,-498,-6972,2527.5,348.64,0.85,47,-1107,-8389,0,0,0,34.1338432,-118.1457228,1.42,2.83,1.21,18,1,3,0,1,0
3057162,1502,-1427,-6980,2528,-425,-6980,2563.5,350.46,2.67,1089,-682,-8845,0,0,0,34.1338438,-118.1457226,1.95,6.32,1.21,18,1,3,0,1,0
3057261,1550,-1480,-6975,2576,-478,-6975,2620.0,349.49,1.70,-676,-741,-6019,0,0,0,34.1338445,-118.1457225,2.56,8.49,1.21,18,1,3,0,1,0
3057361,1555,-1475,-6942,2581,-473,-6942,2624.0,349.62,1.83,538,-391,-8091,0,0,0,34.1338453,-118.1457225,3.22,11.86,1.21,18,1,3,0,1,0
3057461,1485,-1512,-7012,2511,-510,-7012,2562.3,348.52,0.74,-281,-963,-6288,0,0,0,34.1338458,-118.1457224,3.10,9.09,1.21,18,1,3,0,1,0
3057561,1517,-1505,-7037,2543,-503,-7037,2592.3,348.81,1.03,183,-995,-7954,0,0,0,34.1338462,-118.1457221,2.68,8.49,1.21,18,1,3,0,1,0
3057661,1427,-1557,-7000,2453,-555,-7000,2515.0,347.25,359.47,15,-793,-8381,0,0,0,34.1338465,-118.1457219,2.30,3.42,1.21,18,1,3,0,1,0
3057761,1452,-1585,-7037,2478,-583,-7037,2545.7,346.76,358.98,345,-1,-9961,0,0,0,34.1338471,-118.1457219,2.72,359.85,1.21,18,1,3,0,1,0
3057861,1427,-1557,-7022,2453,-555,-7022,2515.0,347.25,359.47,43,-392,-6269,0,0,0,34.1338477,-118.1457217,2.28,4.51,1.21,18,1,3,0,1,0
3057961,1452,-1542,-7022,2478,-540,-7022,2536.2,347.71,359.92,-213,-546,-6193,0,0,0,34.1338481,-118.1457214,2.20,14.46,1.21,18,1,3,0,1,0
3058061,1447,-1490,-6985,2473,-488,-6985,2520.7,348.84,1.05,553,-967,-7441,0,0,0,34.1338486,-118.1457211,1.71,12.63,1.21,18,1,3,0,1,0
3058161,1420,-1485,-7012,2446,-483,-7012,2493.2,348.83,1.05,-129,-910,-7169,0,0,0,34.1338491,-118.1457211,1.69,355.10,1.21,18,1,3,0,1,0
3058261,1447,-1475,-7032,2473,-473,-7032,2517.8,349.17,1.39,-331,-751,-8720,0,0,0,34.1338494,-118.1457209,0.87,356.05,1.21,18,1,3,0,1,0
3058361,1485,-1407,-7037,2511,-405,-7037,2543.5,350.84,3.05,1134,-318,-9367,0,0,0,34.1338499,-118.1457207,1.21,357.21,1.21,18,1,3,0,1,0
3058461,1490,-1567,-6975,2516,-565,-6975,2578.7,347.34,359.56,-532,-1093,-5559,0,0,0,34.1338501,-118.1457203,1.26,3.66,1.21,18,1,3,0,1,0
3058561,1517,-1507,-7007,2543,-505,-7007,2592.7,348.77,0.98,699,-492,-8016,0,0,0,34.1338503,-118.1457201,1.79,359.88,1.21,18,1,3,0,1,0
3058661,1465,-1562,-7000,2491,-560,-7000,2553.2,347.33,359.55,-253,-1152,-6220,0,0,0,34.1338506,-118.1457198,2.00,357.63,1.21,18,1,3,0,1,0
3058761,1447,-1585,-6990,2473,-583,-6990,2540.8,346.73,358.95,-9,-910,-7760,0,0,0,34.1338511,-118.1457196,3.03,356.70,1.21,18,1,3,0,1,0
3058861,1395,-1647,-6990,2421,-645,-6990,2505.4,345.08,357.30,-60,-1205,-8416,0,0,0,34.1338516,-118.1457193,3.43,357.69,1.21,18,1,3,0,1,0
3058961,1527,-1585,-6972,2553,-583,-6972,2618.7,347.14,359.35,404,494,-9770,0,0,0,34.1338521,-118.1457191,3.18,358.99,1.21,18,1,3,0,1,0
3059061,1425,-1512,-6980,2451,-510,-6980,2503.5,348.25,0.46,249,243,-7093,0,0,0,34.1338523,-118.1457187,2.92,11.15,1.21,18,1,3,0,1,0
3059161,1457,-1552,-6985,2483,-550,-6985,2543.2,347.51,359.73,-120,-683,-6237,0,0,0,34.1338526,-118.1457183,2.36,8.20,1.21,18,1,3,0,1,0
3059261,1432,-1500,-7040,2458,-498,-7040,2507.9,348.55,0.76,270,-799,-7212,0,0,0,34.1338532,-118.1457180,1.73,8.23,1.21,18,1,3,0,1,0
3059361,1345,-1552,-7082,2371,-550,-7082,2434.0,346.94,359.16,-228,-952,-7145,0,0,0,34.1338539,-118.1457178,1.90,4.04,1.21,18,1,3,0,1,0
3059461,1345,-1505,-7032,2371,-503,-7032,2423.8,348.02,0.24,117,-1313,-8435,0,0,0,34.1338544,-118.1457178,1.46,4.97,1.21,18,1,3,0,1,0
3059561,1390,-1470,-7040,2416,-468,-7040,2460.9,349.04,1.25,986,-273,-8913,0,0,0,34.1338549,-118.1457178,2.03,358.29,1.21,18,1,3,0,1,0
3059661,1457,-1500,-6995,2483,-498,-6995,2532.4,348.66,0.88,-377,-825,-5874,0,0,0,34.1338555,-118.1457180,2.76,350.19,1.21,18,1,3,0,1,0
3059761,1540,-1445,-6972,2566,-443,-6972,2604.0,350.20,2.42,531,-840,-7225,0,0,0,34.1338560,-118.1457179,2.53,352.65,1.21,18,1,3,0,1,0
3059861,1500,-1490,-6980,2526,-488,-6980,2572.7,349.07,1.28,-174,-572,-6702,0,0,0,34.1338565,-118.1457178,2.32,358.03,1.21,18,1,3,0,1,0
3059961,1405,-1522,-7007,2431,-520,-7007,2486.0,347.93,0.14,303,-585,-8424,0,0,0,34.1338569,-118.1457179,2.63,357.07,1.21,18,1,3,0,1,0
3060062,1457,-1600,-6947,2483,-598,-6947,2554.0,346.46,358.68,-247,-1691,-8160,0,0,0,34.1338574,-118.1457178,1.61,358.12,1.21,18,1,3,0,1,0
3060161,1517,-1552,-6942,2543,-550,-6942,2601.8,347.80,0.01,605,253,-9775,0,0,0,34.1338583,-118.1457176,1.44,2.44,1.21,18,1,3,0,1,0
3060261,1452,-1455,-7017,2478,-453,-7017,2519.1,349.64,1.86,126,237,-7137,0,0,0,34.1338589,-118.1457175,0.65,1.40,1.21,18,1,3,0,1,0
3060361,1420,-1490,-7027,2446,-488,-7027,2494.2,348.72,0.93,-250,-650,-6184,0,0,0,34.1338595,-118.1457174,1.03,1.50,1.21,18,1,3,0,1,0
3060461,1387,-1460,-6995,2413,-458,-6995,2456.1,349.25,1.47,478,-828,-6971,0,0,0,34.1338597,-118.1457173,0.65,2.58,1.21,18,1,3,0,1,0
3060561,1282,-1495,-6967,2308,-493,-6967,2360.1,347.94,0.16,254,-661,-7304,0,0,0,34.1338600,-118.1457172,1.01,357.89,1.21,18,1,3,0,1,0
3060661,1357,-1460,-7027,2383,-458,-7027,2426.6,349.12,1.34,481,-1570,-8513,0,0,0,34.1338603,-118.1457171,0.75,0.72,1.21,18,1,3,0,1,0
3060761,1420,-1355,-6995,2446,-353,-6995,2471.3,351.79,4.00,650,-265,-8928,0,0,0,34.1338608,-118.1457170,1.27,4.47,1.21,18,1,3,0,1,0
3060861,1425,-1402,-7000,2451,-400,-7000,2483.4,350.73,2.95,-559,-931,-6158,0,0,0,34.1338613,-118.1457169,1.18,356.08,1.21,18,1,3,0,1,0
3060961,1457,-1470,-6985,2483,-468,-6985,2526.7,349.33,1.54,416,-166,-7879,0,0,0,34.1338618,-118.1457169,1.19,353.61,1.21,18,1,3,0,1,0
3061061,1387,-1500,-6985,2413,-498,-6985,2463.9,348.34,0.56,80,-938,-6370,0,0,0,34.1338624,-118.1457168,1.47,353.99,1.21,18,1,3,0,1,0
3061161,1330,-1445,-7000,2356,-443,-7000,2397.3,349.35,1.57,416,-1044,-8020,0,0,0,34.1338631,-118.1457167,1.20,353.17,1.21,18,1,3,0,1,0
3061261,1275,-1557,-7032,2301,-555,-7032,2367.0,346.44,358.66,-10,-1533,-8206,0,0,0,34.1338634,-118.1457169,2.08,350.71,1.21,18,1,3,0,1,0
3061361,1387,-1527,-6940,2413,-525,-6940,2469.5,347.73,359.94,500,766,-9705,0,0,0,34.1338641,-118.1457171,1.68,352.03,1.21,18,1,3,0,1,0
3061461,1400,-1495,-6957,2426,-493,-6957,2475.6,348.51,0.73,110,280,-7274,0,0,0,34.1338650,-118.1457172,1.98,358.61,1.21,18,1,3,0,1,0
3061561,1470,-1500,-6972,2496,-498,-6972,2545.2,348.72,0.93,-231,-535,-6773,0,0,0,34.1338652,-118.1457172,1.00,8.87,1.21,18,1,3,0,1,0
3061661,1447,-1450,-6957,2473,-448,-6957,2513.3,349.73,1.95,812,-1303,-7004,0,0,0,34.1338660,-118.1457174,1.85,6.34,1.21,18,1,3,0,1,0
3061761,1425,-1465,-6947,2451,-463,-6947,2494.3,349.30,1.52,-497,-326,-7590,0,0,0,34.1338670,-118.1457178,2.51,356.33,1.21,18,1,3,0,1,0
3061861,1400,-1407,-7000,2426,-405,-7000,2459.6,350.52,2.74,760,-1679,-8715,0,0,0,34.1338678,-118.1457181,3.21,350.56,1.21,18,1,3,0,1,0
3061961,1432,-1392,-6972,2458,-390,-6972,2488.7,350.98,3.20,-11,-226,-8364,0,0,0,34.1338685,-118.1457184,1.68,353.33,1.21,18,1,3,0,1,0
3062061,1437,-1387,-6972,2463,-385,-6972,2492.9,351.12,3.33,-824,-916,-5854,0,0,0,34.1338690,-118.1457185,1.16,356.83,1.21,18,1,3,0,1,0
3062161,1485,-1422,-6942,2511,-420,-6942,2545.9,350.50,2.72,169,-683,-7603,0,0,0,34.1338696,-118.1457189,0.20,6.38,1.21,18,1,3,0,1,0
3062261,1410,-1552,-6972,2436,-550,-6972,2497.3,347.28,359.49,-172,-1001,-6696,0,0,0,34.1338703,-118.1457193,1.64,358.34,1.21,18,1,3,0,1,0
3062361,1325,-1630,-7000,2351,-628,-7000,2433.4,345.04,357.26,604,-1402,-7688,0,0,0,34.1338709,-118.1457198,1.85,350.64,1.21,18,1,3,0,1,0
3062461,1442,-1512,-6985,2468,-510,-6985,2520.1,348.32,0.54,366,-1348,-9172,0,0,0,34.1338717,-118.1457203,2.04,350.86,1.34,17,1,3,0,1,0
3062561,1457,-1465,-6957,2483,-463,-6957,2525.8,349.44,1.65,32,-590,-9475,0,0,0,34.1338726,-118.1457208,2.44,352.02,1.34,17,1,3,0,1,0
3062661,1405,-1325,-6990,2431,-323,-6990,2452.4,352.43,4.65,-398,139,-6974,0,0,0,34.1338738,-118.1457212,2.68,352.29,1.34,17,1,3,0,1,0
3062761,1420,-1330,-6967,2446,-328,-6967,2467.9,352.36,4.58,-372,-725,-5793,0,0,0,34.1338749,-118.1457215,2.43,355.34,1.34,17,1,3,0,1,0
3062861,1377,-1205,-7012,2403,-203,-7012,2411.6,355.17,7.39,242,-1218,-6701,0,0,0,34.1338761,-118.1457217,2.60,358.86,1.34,17,1,3,0,1,0
3062961,1382,-1147,-7050,2408,-145,-7050,2412.4,356.55,8.77,-83,-523,-8383,0,0,0,34.1338773,-118.1457218,2.67,1.08,1.34,17,1,3,0,1,0
3063061,1442,-1305,-7027,2468,-303,-7027,2486.5,353.00,5.22,-439,-1621,-8230,0,0,0,34.1338784,-118.1457220,2.38,358.96,1.21,18,1,3,0,1,0
3063161,1465,-1237,-7007,2491,-235,-7007,2502.1,354.61,6.83,1000,243,-8407,0,0,0,34.1338796,-118.1457222,1.84,357.99,1.21,18,1,3,0,1,0
3063261,1475,-1257,-6907,2501,-255,-6907,2514.0,354.18,6.39,-335,-543,-6459,0,0,0,34.1338809,-118.1457225,1.57,355.77,1.21,18,1,3,0,1,0
3063361,1457,-1335,-6935,2483,-333,-6935,2505.2,352.36,4.58,1197,-1148,-7477,0,0,0,34.1338818,-118.1457228,1.18,353.89,1.21,18,1,3,0,1,0
3063461,1325,-1360,-7022,2351,-358,-7022,2378.1,351.34,3.56,169,-1141,-6158,0,0,0,34.1338825,-118.1457229,0.53,357.01,1.21,18,1,3,0,1,0
3063561,1352,-1330,-7005,2378,-328,-7005,2400.5,352.15,4.36,218,-1102,-8098,0,0,0,34.1338831,-118.1457229,0.29,357.79,1.21,18,1,3,0,1,0
3063662,1325,-1490,-6957,2351,-488,-6957,2401.1,348.27,0.49,294,-2487,-8428,0,0,0,34.1338836,-118.1457229,0.44,1.03,1.21,18,1,3,0,1,0
3063761,1377,-1412,-7005,2403,-410,-7005,2437.7,350.32,2.53,895,876,-10087,0,0,0,34.1338836,-118.1457229,0.44,1.03,1.21,18,1,3,0,1,0
3063861,1275,-1437,-7007,2301,-435,-7007,2341.8,349.29,1.51,-68,-359,-6061,0,0,0,34.1338840,-118.1457221,0.91,39.14,1.21,18,1,3,0,1,0
3063961,1425,-1387,-6985,2451,-385,-6985,2481.1,351.07,3.29,-309,-595,-6655,0,0,0,34.1338845,-118.1457221,0.62,36.12,1.21,18,1,3,0,1,0
3064061,1437,-1432,-6985,2463,-430,-6985,2500.3,350.10,2.31,772,-841,-7283,0,0,0,34.1338852,-118.1457223,0.36,0.00,1.21,18,1,3,0,1,0
3064161,1297,-1450,-7000,2323,-448,-7000,2365.8,349.08,1.30,-332,-856,-6773,0,0,0,34.1338859,-118.1457223,1.07,0.00,1.34,17,1,3,0,1,0
3064261,1320,-1372,-6975,2346,-370,-6975,2375.0,351.04,3.25,1165,-1314,-9143,0,0,0,34.1338867,-118.1457225,1.97,354.81,1.34,17,1,3,0,1,0
3064361,1357,-1397,-6935,2383,-395,-6935,2415.5,350.59,2.80,464,-750,-8714,0,0,0,34.1338875,-118.1457227,2.45,354.37,1.34,17,1,3,0,1,0
3064461,1432,-1427,-6990,2458,-425,-6990,2494.5,350.19,2.41,-496,-612,-5826,0,0,0,34.1338885,-118.1457230,2.14,359.02,1.34,17,1,3,0,1,0
3064561,1420,-1475,-6907,2446,-473,-6907,2491.3,349.06,1.27,735,-531,-8024,0,0,0,34.1338895,-118.1457232,2.38,0.13,1.34,17,1,3,0,1,0
3064661,1357,-1517,-6887,2383,-515,-6887,2438.0,347.81,0.02,22,-898,-6443,0,0,0,34.1338907,-118.1457237,3.01,354.54,1.34,17,1,3,0,1,0
3064761,1427,-1480,-6940,2453,-478,-6940,2499.1,348.97,1.19,120,-872,-7906,0,0,0,34.1338916,-118.1457241,2.64,359.04,1.34,17,1,3,0,1,0
3064861,1287,-1620,-6925,2313,-618,-6925,2394.1,345.04,357.26,-355,-1364,-8603,0,0,0,34.1338924,-118.1457243,1.77,6.83,1.34,17,1,3,0,1,0
3064961,1297,-1657,-6892,2323,-655,-6892,2413.6,344.25,356.47,155,480,-9071,0,0,0,34.1338933,-118.1457243,1.97,12.55,1.34,17,1,3,0,1,0
3065061,1362,-1572,-6962,2388,-570,-6962,2455.1,346.58,358.79,-29,-392,-6700,0,0,0,34.1338940,-118.1457242,1.29,12.45,1.34,17,1,3,0,1,0
3065161,1447,-1595,-6892,2473,-593,-6892,2543.1,346.52,358.73,-271,-314,-6731,0,0,0,34.1338947,-118.1457241,1.04,15.12,1.34,17,1,3,0,1,0
3065261,1437,-1402,-6860,2463,-400,-6860,2495.3,350.78,2.99,695,-1044,-7331,0,0,0,34.1338953,-118.1457241,1.01,11.26,1.34,17,1,3,0,1,0
3065361,1340,-1500,-6887,2366,-498,-6887,2417.8,348.11,0.33,-305,-814,-7356,0,0,0,34.1338954,-118.1457242,1.36,355.50,1.34,17,1,3,0,1,0
3065461,1367,-1422,-6910,2393,-420,-6910,2429.6,350.05,2.26,326,-900,-9015,0,0,0,34.1338953,-118.1457244,1.34,0.00,1.34,17,1,3,0,1,0
3065561,1390,-1392,-6920,2416,-390,-6920,2447.3,350.83,3.05,598,-495,-8874,0,0,0,34.1338951,-118.1457245,1.50,0.00,1.34,17,1,3,0,1,0
3065661,1410,-1422,-6855,2436,-420,-6855,2471.9,350.22,2.43,-769,-642,-5939,0,0,0,34.1338957,-118.1457247,1.84,346.70,1.34,17,1,3,0,1,0
3065761,1485,-1440,-6902,2511,-438,-6902,2548.9,350.11,2.32,523,-329,-8222,0,0,0,34.1338966,-118.1457249,1.88,349.53,1.34,17,1,3,0,1,0
3065861,1405,-1490,-6860,2431,-488,-6860,2479.5,348.65,0.87,-184,-413,-6688,0,0,0,34.1338974,-118.1457251,1.73,353.63,1.34,17,1,3,0,1,0
3065961,1362,-1547,-6877,2388,-545,-6877,2449.4,347.14,359.36,189,-1180,-7219,0,0,0,34.1338980,-118.1457251,1.98,359.24,1.34,17,1,3,0,1,0
3066061,1345,-1687,-6865,2371,-685,-6865,2468.0,343.89,356.10,-956,-837,-8429,0,0,0,34.1338985,-118.1457251,1.14,2.80,1.34,17,1,3,0,1,0
3066161,1345,-1605,-6865,2371,-603,-6865,2446.5,345.73,357.95,584,13,-9798,0,0,0,34.1338991,-118.1457251,2.54,358.71,1.34,17,1,3,0,1,0
3066261,1395,-1635,-6855,2421,-633,-6855,2502.4,345.35,357.56,-291,567,-7745,0,0,0,34.1339003,-118.1457248,2.08,4.94,1.34,17,1,3,0,1,0
3066361,1415,-1672,-6832,2441,-670,-6832,2531.3,344.65,356.87,197,-197,-6352,0,0,0,34.1339013,-118.1457244,1.22,9.38,1.34,17,1,3,0,1,0
3066461,1432,-1672,-6817,2458,-670,-6817,2547.7,344.75,356.97,338,-914,-6888,0,0,0,34.1339022,-118.1457239,1.10,10.32,1.34,17,1,3,0,1,0
3066561,1415,-1557,-6887,2441,-555,-6887,2503.3,347.19,359.41,-561,-223,-7469,0,0,0,34.1339031,-118.1457238,2.18,0.71,1.34,17,1,3,0,1,0
3066661,1432,-1532,-6780,2458,-530,-6780,2514.5,347.83,0.05,69,-1139,-8644,0,0,0,34.1339039,-118.1457241,1.84,347.09,1.34,17,1,3,0,1,0
3066761,1507,-1440,-6850,2533,-438,-6850,2570.6,350.19,2.41,142,-208,-9011,0,0,0,34.1339056,-118.1457247,2.02,342.57,1.34,17,1,3,0,1,0
3066861,1400,-1495,-6850,2426,-493,-6850,2475.6,348.51,0.73,-278,-513,-6332,0,0,0,34.1339067,-118.1457249,1.91,346.14,1.34,17,1,3,0,1,0
3066961,1537,-1465,-6785,2563,-463,-6785,2604.5,349.76,1.98,144,489,-8898,0,0,0,34.1339084,-118.1457251,2.07,2.30,1.34,17,1,3,0,1,0
3067061,1475,-1552,-6785,2501,-550,-6785,2560.8,347.60,359.81,63,-863,-6509,0,0,0,34.1339095,-118.1457252,1.24,3.54,1.21,18,1,3,0,1,0
3067161,1387,-1585,-6882,2413,-583,-6882,2482.4,346.42,358.63,239,-622,-7826,0,0,0,34.1339103,-118.1457255,0.98,351.76,1.21,18,1,3,0,1,0
3067261,1340,-1652,-6842,2366,-650,-6842,2453.7,344.64,356.85,-1124,-1225,-8919,0,0,0,34.1339110,-118.1457260,2.98,342.49,1.21,18,1,3,0,1,0
3067361,1330,-1707,-6855,2356,-705,-6855,2459.2,343.34,355.56,468,-175,-9731,0,0,0,34.1339116,-118.1457263,2.11,351.72,1.21,18,1,3,0,1,0
3067461,1222,-1740,-6877,2248,-738,-6877,2366.0,341.83,354.04,-517,-144,-6519,0,0,0,34.1339122,-118.1457262,1.08,21.64,1.21,18,1,3,0,1,0
3067561,1312,-1702,-6860,2338,-700,-6860,2440.5,343.33,355.55,-289,-67,-6453,0,0,0,34.1339123,-118.1457259,0.77,43.04,1.21,18,1,3,0,1,0
3067661,1277,-1620,-6855,2303,-618,-6855,2384.5,344.98,357.20,344,-1024,-6899,0,0,0,34.1339124,-118.1457258,0.33,0.00,1.21,18,1,3,0,1,0
3067761,1367,-1542,-6892,2393,-540,-6892,2453.2,347.28,359.50,-481,-420,-7589,0,0,0,34.1339131,-118.1457263,2.02,0.00,1.21,18,1,3,0,1,0
3067861,1350,-1512,-6882,2376,-510,-6882,2430.1,347.89,0.10,-182,-1062,-8916,0,0,0,34.1339138,-118.1457270,1.39,322.81,1.21,18,1,3,0,1,0
3067961,1527,-1315,-6790,2553,-313,-6790,2572.1,353.01,5.23,109,-33,-9614,0,0,0,34.1339148,-118.1457275,2.65,333.97,1.21,18,1,3,0,1,0
3068061,1420,-1505,-6807,2446,-503,-6807,2497.2,348.38,0.60,188,68,-6839,0,0,0,34.1339152,-118.1457278,1.74,356.67,1.21,18,1,3,0,1,0
3068161,1540,-1552,-6735,2566,-550,-6735,2624.3,347.90,0.12,518,501,-8834,0,0,0,34.1339157,-118.1457280,1.06,11.81,1.21,18,1,3,0,1,0
3068261,1545,-1585,-6790,2571,-583,-6790,2636.3,347.22,359.44,43,-683,-6422,0,0,0,34.1339159,-118.1457281,0.44,0.00,1.21,18,1,3,0,1,0
3068361,1475,-1580,-6817,2501,-578,-6817,2566.9,346.99,359.20,-40,-365,-8124,0,0,0,34.1339163,-118.1457281,0.58,0.00,1.21,18,1,3,0,1,0
3068461,1340,-1707,-6845,2366,-705,-6845,2468.8,343.41,355.62,-564,-292,-9202,0,0,0,34.1339166,-118.1457282,0.96,0.00,1.21,18,1,3,0,1,0
3068561,1345,-1707,-6827,2371,-705,-6827,2473.6,343.44,355.66,-79,461,-9744,0,0,0,34.1339174,-118.1457285,1.72,346.60,1.21,18,1,3,0,1,0
3068661,1275,-1672,-6875,2301,-670,-6875,2396.6,343.77,355.98,-445,-179,-6490,0,0,0,34.1339180,-118.1457286,1.25,342.98,1.21,18,1,3,0,1,0
3068761,1320,-1702,-6892,2346,-700,-6892,2448.2,343.39,355.60,-446,231,-6820,0,0,0,34.1339179,-118.1457285,0.32,0.00,1.21,18,1,3,0,1,0
3068861,1390,-1662,-6875,2416,-660,-6875,2504.5,344.72,356.94,274,-854,-6986,0,0,0,34.1339185,-118.1457283,0.50,0.00,1.21,18,1,3,0,1,0
3068961,1277,-1667,-6882,2303,-665,-6882,2397.1,343.89,356.11,-457,-577,-7227,0,0,0,34.1339192,-118.1457285,1.17,0.00,1.21,18,1,3,0,1,0
3069061,1335,-1720,-6845,2361,-718,-6845,2467.8,343.09,355.30,-708,-558,-8556,0,0,0,34.1339197,-118.1457290,2.21,346.35,1.21,18,1,3,0,1,0
3069161,1410,-1645,-6817,2436,-643,-6817,2519.4,345.21,357.43,2198,-417,-10093,0,0,0,34.1339204,-118.1457297,3.03,344.44,1.21,18,1,3,0,1,0
3069262,1387,-1712,-6812,2413,-710,-6812,2515.3,343.60,355.82,-844,-248,-6033,0,0,0,34.1339217,-118.1457298,2.23,347.93,1.21,18,1,3,0,1,0
3069361,1442,-1775,-6855,2468,-773,-6855,2586.2,342.61,354.83,-138,-425,-7525,0,0,0,34.1339230,-118.1457298,2.21,352.77,1.21,18,1,3,0,1,0
3069461,1420,-1870,-6757,2446,-868,-6757,2595.4,340.46,352.68,228,-1104,-6609,0,0,0,34.1339240,-118.1457298,1.18,0.44,1.21,18,1,3,0,1,0
3069561,1362,-1875,-6822,2388,-873,-6822,2542.6,339.92,352.13,-177,-546,-6905,0,0,0,34.1339243,-118.1457299,0.41,10.79,1.21,18,1,3,0,1,0
3069661,1275,-1860,-6870,2301,-858,-6870,2455.8,339.55,351.77,403,-747,-8780,0,0,0,34.1339252,-118.1457299,1.11,9.73,1.21,18,1,3,0,1,0
3069761,1302,-1962,-6860,2328,-960,-6860,2518.2,337.59,349.81,-214,-962,-8654,0,0,0,34.1339266,-118.1457302,2.26,5.67,1.21,18,1,3,0,1,0
3069861,1287,-1957,-6850,2313,-955,-6850,2502.4,337.57,349.78,-4,-350,-7551,0,0,0,34.1339281,-118.1457302,2.59,1.64,1.21,18,1,3,0,1,0
3069961,1307,-1905,-6822,2333,-903,-6822,2501.7,338.84,351.06,-353,702,-7090,0,0,0,34.1339291,-118.1457302,1.57,2.90,1.21,18,1,3,0,1,0
3070061,1330,-1875,-6812,2356,-873,-6812,2512.5,339.67,351.88,63,-720,-6940,0,0,0,34.1339298,-118.1457301,0.68,9.84,1.21,18,1,3,0,1,0
3070161,1287,-1822,-6842,2313,-820,-6842,2454.1,340.48,352.70,-10,-1030,-6793,0,0,0,34.1339306,-118.1457301,1.17,359.63,1.21,18,1,3,0,1,0
3070261,1330,-1837,-6800,2356,-835,-6800,2499.6,340.48,352.70,-605,-474,-7908,0,0,0,34.1339311,-118.1457309,1.35,345.15,1.21,18,1,3,0,1,0
3070361,1312,-1875,-6812,2338,-873,-6812,2495.7,339.52,351.74,-261,-978,-8615,0,0,0,34.1339321,-118.1457315,2.45,341.05,1.21,18,1,3,0,1,0
3070461,1277,-1807,-6842,2303,-805,-6842,2439.6,340.73,352.95,391,499,-7637,0,0,0,34.1339328,-118.1457320,2.03,347.41,1.21,18,1,3,0,1,0
3070561,1442,-1910,-6775,2468,-908,-6775,2629.7,339.80,352.02,-2,-1090,-7001,0,0,0,34.1339333,-118.1457319,1.07,5.01,1.21,18,1,3,0,1,0
3070661,1427,-1957,-6725,2453,-955,-6725,2632.3,338.73,350.94,-10,-958,-6411,0,0,0,34.1339339,-118.1457319,1.62,5.44,1.21,18,1,3,0,1,0
3070761,1420,-1942,-6735,2446,-940,-6735,2620.4,338.98,351.19,-335,-885,-6916,0,0,0,34.1339343,-118.1457319,0.99,8.45,1.21,18,1,3,0,1,0
3070861,1390,-1987,-6752,2416,-985,-6752,2609.1,337.82,350.04,29,-826,-9280,0,0,0,34.1339352,-118.1457321,2.60,357.50,1.21,18,1,3,0,1,0
3070961,1387,-1977,-6747,2413,-975,-6747,2602.5,338.00,350.21,-546,-635,-9071,0,0,0,34.1339363,-118.1457325,2.97,349.86,1.21,18,1,3,0,1,0
3071061,1395,-1952,-6775,2421,-950,-6775,2600.7,338.57,350.79,346,-937,-7016,0,0,0,34.1339369,-118.1457327,2.17,350.66,1.21,18,1,3,0,1,0
3071161,1415,-1865,-6780,2441,-863,-6780,2589.1,340.53,352.75,-383,1132,-6784,0,0,0,34.1339376,-118.1457329,1.81,356.05,1.21,18,1,3,0,1,0
3071261,1575,-1787,-6740,2601,-785,-6740,2716.9,343.21,355.42,489,-463,-7407,0,0,0,34.1339387,-118.1457330,2.14,3.26,1.21,18,1,3,0,1,0
3071361,1500,-1792,-6735,2526,-790,-6735,2646.7,342.63,354.85,197,-894,-7258,0,0,0,34.1339394,-118.1457329,1.63,9.33,1.21,18,1,3,0,1,0
3071461,1527,-1730,-6747,2553,-728,-6747,2654.8,344.08,356.30,-647,-276,-8985,0,0,0,34.1339402,-118.1457327,1.13,15.98,1.21,18,1,3,0,1,0
3071561,1502,-1745,-6747,2528,-743,-6747,2634.9,343.62,355.84,-621,-823,-8270,0,0,0,34.1339410,-118.1457327,1.76,1.92,1.21,18,1,3,0,1,0
3071661,1570,-1750,-6735,2596,-748,-6735,2701.6,343.93,356.14,89,473,-8199,0,0,0,34.1339420,-118.1457328,1.93,347.16,1.21,18,1,3,0,1,0
3071761,1615,-1740,-6692,2641,-738,-6692,2742.2,344.39,356.60,-178,-312,-7407,0,0,0,34.1339430,-118.1457334,1.84,337.33,1.21,18,1,3,0,1,0
3071861,1517,-1770,-6752,2543,-768,-6752,2656.4,343.20,355.41,-291,-835,-6396,0,0,0,34.1339437,-118.1457338,1.56,338.47,1.21,18,1,3,0,1,0
3071961,1577,-1787,-6780,2603,-785,-6780,2718.8,343.22,355.43,-251,-748,-7021,0,0,0,34.1339448,-118.1457341,2.08,341.76,1.21,18,1,3,0,1,0
3072061,1507,-1765,-6742,2533,-763,-6742,2645.4,343.24,355.45,-128,-478,-9067,0,0,0,34.1339457,-118.1457344,3.09,348.64,1.21,18,1,3,0,1,0
3072161,1507,-1880,-6702,2533,-878,-6702,2680.9,340.88,353.10,-123,-730,-8601,0,0,0,34.1339467,-118.1457346,2.74,352.59,1.21,18,1,3,0,1,0
3072261,1540,-1787,-6665,2566,-785,-6665,2683.4,342.99,355.21,-248,-335,-7535,0,0,0,34.1339470,-118.1457341,2.00,354.69,1.21,18,1,3,0,1,0
3072361,1522,-1832,-6675,2548,-830,-6675,2679.8,341.96,354.17,-232,37,-6824,0,0,0,34.1339477,-118.1457339,1.54,352.69,1.21,18,1,3,0,1,0
3072461,1565,-1765,-6670,2591,-763,-6670,2701.0,343.59,355.81,334,-363,-6965,0,0,0,34.1339484,-118.1457336,1.03,3.33,1.21,18,1,3,0,1,0
3072561,1485,-1782,-6677,2511,-780,-6677,2629.4,342.74,354.96,59,-825,-6701,0,0,0,34.1339493,-118.1457334,1.18,359.13,1.21,18,1,3,0,1,0
3072661,1502,-1677,-6725,2528,-675,-6725,2616.6,345.05,357.27,141,-414,-8575,0,0,0,34.1339494,-118.1457336,1.08,345.75,1.21,18,1,3,0,1,0
3072761,1657,-1527,-6637,2683,-525,-6637,2733.9,348.93,1.14,-788,-722,-8085,0,0,0,34.1339503,-118.1457338,1.96,340.68,1.21,18,1,3,0,1,0
3072861,1645,-1480,-6687,2671,-478,-6687,2713.4,349.85,2.07,656,390,-8248,0,0,0,34.1339518,-118.1457339,2.68,346.81,1.21,18,1,3,0,1,0
3072961,1640,-1517,-6632,2666,-515,-6632,2715.3,349.07,1.28,167,-292,-7542,0,0,0,34.1339530,-118.1457338,2.00,350.53,1.34,17,1,3,0,1,0
3073061,1602,-1585,-6675,2628,-583,-6675,2691.9,347.49,359.71,516,-845,-6617,0,0,0,34.1339540,-118.1457335,0.86,357.72,1.34,17,1,3,0,1,0
3073161,1615,-1507,-6665,2641,-505,-6665,2688.8,349.17,1.39,153,-892,-6731,0,0,0,34.1339549,-118.1457331,1.59,7.90,1.34,17,1,3,0,1,0
3073261,1615,-1495,-6617,2641,-493,-6617,2686.6,349.43,1.64,301,-967,-8515,0,0,0,34.1339562,-118.1457329,1.26,8.71,1.34,17,1,3,0,1,0
3073361,1587,-1590,-6655,2613,-588,-6655,2678.3,347.32,359.53,105,-1392,-8214,0,0,0,34.1339577,-118.1457325,1.50,4.93,1.34,17,1,3,0,1,0
3073461,1615,-1490,-6637,2641,-488,-6637,2685.7,349.53,1.75,227,48,-8400,0,0,0,34.1339589,-118.1457321,1.57,10.72,1.34,17,1,3,0,1,0
3073561,1640,-1445,-6650,2666,-443,-6650,2702.6,350.57,2.78,-297,1068,-7746,0,0,0,34.1339599,-118.1457318,1.40,11.66,1.34,17,1,3,0,1,0
3073661,1607,-1432,-6655,2633,-430,-6655,2667.9,350.72,2.94,285,-954,-6553,0,0,0,34.1339603,-118.1457314,0.70,10.71,1.34,17,1,3,0,1,0
3073761,1565,-1505,-6740,2591,-503,-6740,2639.4,349.01,1.23,342,-852,-6708,0,0,0,34.1339606,-118.1457311,0.80,0.00,1.34,17,1,3,0,1,0
3073861,1550,-1522,-6742,2576,-520,-6742,2628.0,348.59,0.80,-113,-301,-7354,0,0,0,34.1339611,-118.1457309,0.89,0.00,1.34,17,1,3,0,1,0
3073961,1502,-1490,-6677,2528,-488,-6677,2574.7,349.07,1.29,652,-1036,-8813,0,0,0,34.1339613,-118.1457307,1.20,355.04,1.34,17,1,3,0,1,0
3074061,1597,-1412,-6707,2623,-410,-6707,2654.9,351.12,3.33,154,530,-8146,0,0,0,34.1339620,-118.1457306,1.36,357.43,1.34,17,1,3,0,1,0
3074161,1690,-1427,-6670,2716,-425,-6670,2749.1,351.11,3.32,110,-801,-7683,0,0,0,34.1339629,-118.1457305,1.64,4.62,1.34,17,1,3,0,1,0
3074261,1700,-1495,-6660,2726,-493,-6660,2770.2,349.75,1.96,28,-1027,-6242,0,0,0,34.1339634,-118.1457303,1.71,5.89,1.34,17,1,3,0,1,0
3074361,1555,-1572,-6687,2581,-570,-6687,2643.2,347.55,359.76,-283,-727,-7263,0,0,0,34.1339639,-118.1457302,1.51,12.72,1.34,17,1,3,0,1,0
3074461,1442,-1615,-6767,2468,-613,-6767,2543.0,346.05,358.27,211,-884,-8971,0,0,0,34.1339647,-118.1457302,1.38,15.28,1.34,17,1,3,0,1,0
3074561,1410,-1640,-6742,2436,-638,-6742,2518.2,345.32,357.54,-56,-1426,-8894,0,0,0,34.1339654,-118.1457301,1.48,18.47,1.34,17,1,3,0,1,0
3074661,1307,-1640,-6822,2333,-638,-6822,2418.7,344.71,356.92,-459,-200,-7093,0,0,0,34.1339658,-118.1457301,1.73,18.65,1.34,17,1,3,0,1,0
3074761,1307,-1620,-6805,2333,-618,-6805,2413.5,345.16,357.38,-192,383,-6340,0,0,0,34.1339662,-118.1457301,2.20,14.65,1.34,17,1,3,0,1,0
3074861,1427,-1562,-6747,2453,-560,-6747,2516.1,347.14,359.36,519,-843,-6679,0,0,0,34.1339666,-118.1457297,1.69,19.55,1.34,17,1,3,0,1,0
3074961,1480,-1567,-6735,2506,-565,-6735,2568.9,347.29,359.51,64,-776,-7215,0,0,0,34.1339669,-118.1457296,1.89,11.97,1.34,17,1,3,0,1,0
3075061,1500,-1485,-6710,2526,-483,-6710,2571.8,349.18,1.39,18,-598,-8816,0,0,0,34.1339676,-118.1457295,2.80,6.13,1.34,17,1,3,0,1,0
3075161,1517,-1372,-6762,2543,-370,-6762,2569.8,351.72,3.94,-248,-794,-8657,0,0,0,34.1339684,-118.1457296,2.59,0.62,1.34,17,1,3,0,1,0
3075261,1420,-1345,-6812,2446,-343,-6812,2469.9,352.02,4.23,-211,457,-7355,0,0,0,34.1339693,-118.1457296,2.42,351.38,1.34,17,1,3,0,1,0
3075361,1507,-1387,-6697,2533,-385,-6697,2562.1,351.36,3.57,-2,-1053,-7445,0,0,0,34.1339701,-118.1457297,1.74,349.15,1.34,17,1,3,0,1,0
3075461,1462,-1465,-6715,2488,-463,-6715,2530.7,349.46,1.67,170,-1062,-6240,0,0,0,34.1339708,-118.1457297,1.45,350.08,1.34,17,1,3,0,1,0
3075561,1507,-1445,-6757,2533,-443,-6757,2571.4,350.08,2.30,166,-1066,-7392,0,0,0,34.1339715,-118.1457299,1.94,355.98,1.34,17,1,3,0,1,0
3075661,1457,-1547,-6775,2483,-545,-6775,2542.1,347.62,359.84,-447,-501,-8883,0,0,0,34.1339721,-118.1457300,1.82,7.86,1.34,17,1,3,0,1,0
3075761,1502,-1547,-6715,2528,-545,-6715,2586.1,347.83,0.05,440,-576,-9691,0,0,0,34.1339729,-118.1457293,2.46,21.60,1.34,17,1,3,0,1,0
3075861,1507,-1517,-6730,2533,-515,-6730,2584.8,348.51,0.72,-665,-702,-6395,0,0,0,34.1339739,-118.1457296,1.80,9.06,1.34,17,1,3,0,1,0
3075961,1615,-1480,-6675,2641,-478,-6675,2683.9,349.74,1.96,-344,523,-7272,0,0,0,34.1339748,-118.1457300,1.65,353.42,1.34,17,1,3,0,1,0
3076061,1607,-1460,-6675,2633,-458,-6675,2672.5,350.13,2.35,468,-489,-6956,0,0,0,34.1339747,-118.1457312,0.97,336.26,1.34,17,1,3,0,1,0
3076161,1550,-1500,-6675,2576,-498,-6675,2623.7,349.06,1.27,-6,-259,-7602,0,0,0,34.1339752,-118.1457321,1.10,318.70,1.34,17,1,3,0,1,0
3076261,1507,-1547,-6692,2533,-545,-6692,2591.0,347.86,0.07,-14,-985,-8361,0,0,0,34.1339757,-118.1457323,1.90,353.54,1.34,17,1,3,0,1,0
3076361,1640,-1500,-6617,2666,-498,-6617,2712.1,349.42,1.64,1166,-431,-9394,0,0,0,34.1339761,-118.1457326,1.33,1.94,1.34,17,1,3,0,1,0
3076461,1672,-1547,-6590,2698,-545,-6590,2752.5,348.58,0.80,-800,-179,-6158,0,0,0,34.1339767,-118.1457328,1.51,0.78,1.34,17,1,3,0,1,0
3076561,1725,-1615,-6525,2751,-613,-6525,2818.5,347.44,359.65,746,-53,-8307,0,0,0,34.1339773,-118.1457331,1.59,3.96,1.34,17,1,3,0,1,0
3076661,1672,-1645,-6590,2698,-643,-6590,2773.6,346.60,358.81,-102,-477,-6239,0,0,0,34.1339776,-118.1457332,1.95,21.38,1.34,17,1,3,0,1,0
3076761,1645,-1640,-6637,2671,-638,-6637,2746.1,346.57,358.78,150,-232,-7446,0,0,0,34.1339781,-118.1457330,2.02,25.25,1.34,17,1,3,0,1,0
3076861,1667,-1657,-6572,2693,-655,-6572,2771.5,346.33,358.55,581,-1109,-9176,0,0,0,34.1339787,-118.1457327,2.23,20.38,1.34,17,1,3,0,1,0
3076961,1700,-1625,-6552,2726,-623,-6552,2796.3,347.13,359.34,235,309,-9607,0,0,0,34.1339806,-118.1457327,1.99,3.38,1.39,16,1,3,0,1,0
3077061,1615,-1542,-6627,2641,-540,-6627,2695.6,348.44,0.66,-451,-207,-6611,0,0,0,34.1339821,-118.1457330,1.88,357.30,1.39,16,1,3,0,1,0
3077161,1662,-1532,-6572,2688,-530,-6572,2739.8,348.85,1.06,-691,158,-6526,0,0,0,34.1339833,-118.1457331,2.12,359.91,1.39,16,1,3,0,1,0
3077261,1700,-1480,-6665,2726,-478,-6665,2767.6,350.05,2.27,469,-753,-6960,0,0,0,34.1339847,-118.1457329,1.39,8.07,1.39,16,1,3,0,1,0
3077361,1657,-1437,-6642,2683,-435,-6642,2718.0,350.79,3.01,255,3,-7627,0,0,0,34.1339859,-118.1457329,0.87,12.03,1.39,16,1,3,0,1,0
3077461,1570,-1455,-6670,2596,-453,-6670,2635.2,350.10,2.32,222,-1262,-8448,0,0,0,34.1339868,-118.1457329,0.78,355.80,1.39,16,1,3,0,1,0
3077561,1602,-1440,-6655,2628,-438,-6655,2664.2,350.54,2.75,371,-402,-8349,0,0,0,34.1339878,-118.1457329,1.51,353.65,1.39,16,1,3,0,1,0
3077661,1720,-1527,-6665,2746,-525,-6665,2795.7,349.18,1.39,-516,-479,-6507,0,0,0,34.1339886,-118.1457329,1.62,351.53,1.39,16,1,3,0,1,0
3077761,1747,-1465,-6610,2773,-463,-6610,2811.4,350.52,2.74,831,99,-8311,0,0,0,34.1339897,-118.1457330,1.65,349.11,1.39,16,1,3,0,1,0
3077861,1640,-1517,-6702,2666,-515,-6702,2715.3,349.07,1.28,88,-497,-6632,0,0,0,34.1339905,-118.1457329,0.84,347.30,1.34,17,1,3,0,1,0
3077961,1635,-1500,-6677,2661,-498,-6677,2707.2,349.40,1.62,371,-552,-7481,0,0,0,34.1339914,-118.1457328,0.98,349.01,1.34,17,1,3,0,1,0
3078061,1607,-1557,-6720,2633,-555,-6720,2690.9,348.10,0.31,-296,-664,-8640,0,0,0,34.1339924,-118.1457328,1.62,4.85,1.34,17,1,3,0,1,0
3078161,1635,-1500,-6650,2661,-498,-6650,2707.2,349.40,1.62,401,212,-9981,0,0,0,34.1339938,-118.1457327,1.37,351.96,1.34,17,1,3,0,1,0
3078261,1602,-1495,-6682,2628,-493,-6682,2673.8,349.38,1.59,-274,-382,-6729,0,0,0,34.1339945,-118.1457328,1.05,359.48,1.34,17,1,3,0,1,0
3078361,1630,-1552,-6707,2656,-550,-6707,2712.3,348.30,0.52,-506,665,-6815,0,0,0,34.1339954,-118.1457324,0.48,19.27,1.34,17,1,3,0,1,0
3078461,1640,-1512,-6742,2666,-510,-6742,2714.3,349.17,1.39,478,-520,-6980,0,0,0,34.1339962,-118.1457321,1.59,15.97,1.34,17,1,3,0,1,0
3078561,1615,-1505,-6767,2641,-503,-6767,2688.5,349.22,1.43,-247,-649,-7310,0,0,0,34.1339970,-118.1457322,1.10,11.48,1.34,17,1,3,0,1,0
3078661,1507,-1460,-6805,2533,-458,-6805,2574.1,349.75,1.97,-339,-406,-8888,0,0,0,34.1339978,-118.1457326,1.40,2.67,1.34,17,1,3,0,1,0
3078761,1602,-1450,-6752,2628,-448,-6752,2665.9,350.33,2.54,334,-656,-8855,0,0,0,34.1339985,-118.1457332,2.67,2.21,1.34,17,1,3,0,1,0
3078861,1607,-1455,-6775,2633,-453,-6775,2671.7,350.24,2.45,-265,377,-7135,0,0,0,34.1339990,-118.1457335,2.22,8.74,1.34,17,1,3,0,1,0
3078961,1682,-1490,-6720,2708,-488,-6720,2751.6,349.78,2.00,-15,18,-8129,0,0,0,34.1339994,-118.1457337,1.65,9.14,1.34,17,1,3,0,1,0
3079061,1625,-1547,-6720,2651,-545,-6720,2706.4,348.38,0.60,21,-783,-6539,0,0,0,34.1339997,-118.1457339,1.15,354.39,1.34,17,1,3,0,1,0
3079161,1577,-1500,-6762,2603,-498,-6762,2650.2,349.17,1.39,52,-623,-7620,0,0,0,34.1340002,-118.1457342,1.52,348.75,1.34,17,1,3,0,1,0
3079261,1462,-1605,-6865,2488,-603,-6865,2560.0,346.38,358.59,-203,-537,-8556,0,0,0,34.1340010,-118.1457344,2.00,358.02,1.34,17,1,3,0,1,0
3079361,1485,-1577,-6842,2511,-575,-6842,2576.0,347.10,359.32,105,-755,-8860,0,0,0,34.1340016,-118.1457345,1.77,2.82,1.34,17,1,3,0,1,0
3079461,1400,-1677,-6812,2426,-675,-6812,2518.2,344.45,356.67,-418,-542,-6672,0,0,0,34.1340021,-118.1457347,1.31,3.55,1.34,17,1,3,0,1,0
3079561,1490,-1585,-6812,2516,-583,-6812,2582.7,346.95,359.17,-581,532,-7555,0,0,0,34.1340025,-118.1457346,1.23,3.18,1.34,17,1,3,0,1,0
3079661,1490,-1562,-6775,2516,-560,-6775,2577.6,347.45,359.67,573,-622,-7177,0,0,0,34.1340030,-118.1457341,1.27,5.42,1.34,17,1,3,0,1,0
3079761,1410,-1697,-6855,2436,-695,-6855,2533.2,344.08,356.29,-594,-981,-6891,0,0,0,34.1340037,-118.1457340,0.97,358.55,1.34,17,1,3,0,1,0
3079861,1415,-1640,-6817,2441,-638,-6817,2523.0,345.35,357.57,-352,-66,-8593,0,0,0,34.1340043,-118.1457342,1.93,341.02,1.34,17,1,3,0,1,0
3079961,1415,-1645,-6827,2441,-643,-6827,2524.3,345.24,357.46,4,-843,-8978,0,0,0,34.1340050,-118.1457343,2.55,335.43,1.34,17,1,3,0,1,0
3080061,1400,-1735,-6827,2426,-733,-6827,2534.3,343.19,355.40,-36,265,-7582,0,0,0,34.1340057,-118.1457346,1.73,330.79,1.34,17,1,3,0,1,0
3080161,1447,-1712,-6785,2473,-710,-6785,2572.9,343.98,356.20,103,-78,-8047,0,0,0,34.1340063,-118.1457350,2.00,332.77,1.34,17,1,3,0,1,0
3080261,1507,-1755,-6805,2533,-753,-6805,2642.6,343.44,355.66,17,-493,-6926,0,0,0,34.1340071,-118.1457353,1.92,344.34,1.34,17,1,3,0,1,0
3080362,1427,-1775,-6735,2453,-773,-6735,2571.9,342.51,354.73,-10,-768,-6780,0,0,0,34.1340074,-118.1457355,1.12,354.03,1.34,17,1,3,0,1,0
3080461,1382,-1827,-6795,2408,-825,-6795,2545.4,341.09,353.30,-123,-431,-8907,0,0,0,34.1340086,-118.1457353,1.18,3.61,1.34,17,1,3,0,1,0
3080561,1382,-1927,-6790,2408,-925,-6790,2579.6,338.99,351.20,-121,-932,-8751,0,0,0,34.1340095,-118.1457351,1.31,6.76,1.34,17,1,3,0,1,0
3080661,1335,-1972,-6775,2361,-970,-6775,2552.5,337.67,349.88,-253,-197,-7528,0,0,0,34.1340105,-118.1457349,1.73,9.08,1.34,17,1,3,0,1,0
3080761,1465,-1947,-6687,2491,-945,-6687,2664.2,339.22,351.44,-442,572,-6900,0,0,0,34.1340114,-118.1457347,1.32,13.00,1.34,17,1,3,0,1,0
3080861,1517,-1927,-6675,2543,-925,-6675,2706.0,340.01,352.23,546,-651,-7432,0,0,0,34.1340121,-118.1457345,1.04,15.48,1.34,17,1,3,0,1,0
3080961,1537,-1910,-6752,2563,-908,-6752,2719.1,340.49,352.71,-173,-688,-7040,0,0,0,34.1340131,-118.1457342,1.25,359.96,1.34,17,1,3,0,1,0
3081061,1500,-1890,-6682,2526,-888,-6682,2677.5,340.63,352.85,-743,-102,-7987,0,0,0,34.1340141,-118.1457340,1.35,10.02,1.34,17,1,3,0,1,0
3081161,1457,-1822,-6752,2483,-820,-6752,2614.9,341.72,353.94,-40,-934,-8250,0,0,0,34.1340153,-118.1457336,1.58,23.74,1.34,17,1,3,0,1,0
3081261,1427,-1792,-6767,2453,-790,-6767,2577.1,342.15,354.36,329,68,-8352,0,0,0,34.1340163,-118.1457331,1.43,26.96,1.34,17,1,3,0,1,0
3081361,1457,-1855,-6697,2483,-853,-6697,2625.4,341.04,353.26,-597,-1235,-5954,0,0,0,34.1340172,-118.1457327,1.16,24.59,1.34,17,1,3,0,1,0
3081461,1480,-1865,-6692,2506,-863,-6692,2650.4,341.00,353.21,330,-489,-7514,0,0,0,34.1340181,-118.1457323,1.08,19.21,1.34,17,1,3,0,1,0
3081561,1462,-1962,-6715,2488,-960,-6715,2666.8,338.90,351.12,-195,-677,-6778,0,0,0,34.1340190,-118.1457321,1.81,12.42,1.34,17,1,3,0,1,0
3081661,1462,-1927,-6677,2488,-925,-6677,2654.4,339.61,351.82,-452,-523,-8545,0,0,0,34.1340199,-118.1457318,1.88,7.03,1.34,17,1,3,0,1,0
3081761,1357,-2087,-6740,2383,-1085,-6740,2618.4,335.52,347.74,8,-1823,-8133,0,0,0,34.1340207,-118.1457315,2.26,1.27,1.34,17,1,3,0,1,0
3081861,1387,-2097,-6730,2413,-1095,-6730,2649.8,335.59,347.81,174,307,-8048,0,0,0,34.1340216,-118.1457312,2.22,1.60,1.34,17,1,3,0,1,0
3081961,1537,-2097,-6677,2563,-1095,-6677,2787.1,336.87,349.08,-585,391,-7169,0,0,0,34.1340225,-118.1457310,1.48,359.58,1.34,17,1,3,0,1,0
3082061,1620,-1995,-6610,2646,-993,-6610,2826.2,339.43,351.65,-200,119,-7562,0,0,0,34.1340234,-118.1457306,1.30,6.59,1.34,17,1,3,0,1,0
3082161,1602,-2015,-6675,2628,-1013,-6675,2816.5,338.92,351.14,180,-547,-6954,0,0,0,34.1340242,-118.1457303,1.07,12.52,1.34,17,1,3,0,1,0
3082261,1570,-1987,-6642,2596,-985,-6642,2776.6,339.22,351.44,-816,226,-7847,0,0,0,34.1340252,-118.1457301,1.58,9.83,1.34,17,1,3,0,1,0
3082361,1615,-1995,-6675,2641,-993,-6675,2821.5,339.39,351.61,166,-1302,-8230,0,0,0,34.1340262,-118.1457300,1.50,4.00,1.34,17,1,3,0,1,0
3082461,1540,-1987,-6677,2566,-985,-6677,2748.6,339.00,351.22,260,198,-8732,0,0,0,34.1340270,-118.1457299,1.20,1.92,1.34,17,1,3,0,1,0
3082561,1640,-1972,-6612,2666,-970,-6612,2837.0,340.01,352.22,-627,-708,-6422,0,0,0,34.1340281,-118.1457298,1.83,3.64,1.34,17,1,3,0,1,0
3082661,1630,-2062,-6600,2656,-1060,-6600,2859.7,338.24,350.46,-181,-284,-7320,0,0,0,34.1340288,-118.1457297,1.14,5.26,1.34,17,1,3,0,1,0
3082761,1560,-2092,-6702,2586,-1090,-6702,2806.3,337.14,349.36,-181,-434,-6653,0,0,0,34.1340295,-118.1457294,1.41,15.34,1.34,17,1,3,0,1,0
3082861,1517,-2050,-6742,2543,-1048,-6742,2750.5,337.60,349.82,297,-1207,-8258,0,0,0,34.1340302,-118.1457293,1.44,12.47,1.34,17,1,3,0,1,0
3082961,1405,-2107,-6730,2431,-1105,-6730,2670.4,335.56,347.77,44,-1335,-8899,0,0,0,34.1340310,-118.1457297,1.76,1.95,1.34,17,1,3,0,1,0
3083061,1432,-2107,-6707,2458,-1105,-6707,2695.0,335.79,348.01,217,219,-8823,0,0,0,34.1340319,-118.1457303,1.90,352.70,1.34,17,1,3,0,1,0
3083161,1420,-2180,-6692,2446,-1178,-6692,2714.9,334.28,346.50,-517,-60,-7115,0,0,0,34.1340325,-118.1457304,1.08,357.80,1.34,17,1,3,0,1,0
3083261,1540,-2067,-6740,2566,-1065,-6740,2778.2,337.46,349.68,-521,-18,-6691,0,0,0,34.1340333,-118.1457304,1.40,358.38,1.34,17,1,3,0,1,0
3083361,1587,-2025,-6720,2613,-1023,-6720,2806.1,338.62,350.84,541,-506,-7203,0,0,0,34.1340340,-118.1457302,1.08,359.79,1.34,17,1,3,0,1,0
3083461,1620,-2020,-6720,2646,-1018,-6720,2835.1,338.96,351.17,-395,-270,-7460,0,0,0,34.1340346,-118.1457302,1.12,0.05,1.34,17,1,3,0,1,0
3083561,1635,-2055,-6670,2661,-1053,-6670,2861.8,338.41,350.63,-473,-747,-8312,0,0,0,34.1340354,-118.1457301,1.73,2.66,1.34,17,1,3,0,1,0
3083661,1775,-2055,-6612,2801,-1053,-6612,2992.4,339.40,351.61,1327,-57,-9268,0,0,0,34.1340367,-118.1457304,2.72,357.31,1.34,17,1,3,0,1,0
3083761,1752,-2175,-6622,2778,-1173,-6622,3015.5,337.11,349.32,-808,-933,-5947,0,0,0,34.1340375,-118.1457308,1.53,355.63,1.34,17,1,3,0,1,0
3083861,1855,-2025,-6655,2881,-1023,-6655,3057.2,340.45,352.67,270,70,-8071,0,0,0,34.1340387,-118.1457308,1.46,3.62,1.34,17,1,3,0,1,0
3083961,1682,-2097,-6670,2708,-1095,-6670,2921.0,337.98,350.20,-186,-587,-6393,0,0,0,34.1340396,-118.1457308,1.02,11.30,1.34,17,1,3,0,1,0
3084061,1725,-2050,-6677,2751,-1048,-6677,2943.9,339.15,351.36,375,-740,-8370,0,0,0,34.1340404,-118.1457308,1.40,12.71,1.34,17,1,3,0,1,0
3084161,1705,-2045,-6702,2731,-1043,-6702,2923.4,339.10,351.31,-140,-1613,-8345,0,0,0,34.1340413,-118.1457310,2.25,4.26,1.37,16,1,3,0,1,0
3084261,1725,-2067,-6710,2751,-1065,-6710,2950.0,338.84,351.05,186,558,-9532,0,0,0,34.1340417,-118.1457314,2.00,359.65,1.34,17,1,3,0,1,0
3084361,1690,-1927,-6730,2716,-925,-6730,2869.2,341.19,353.41,-577,523,-7163,0,0,0,34.1340420,-118.1457317,1.82,358.78,1.34,17,1,3,0,1,0
3084461,1752,-2040,-6702,2778,-1038,-6702,2965.6,339.51,351.73,-185,-739,-6209,0,0,0,34.1340422,-118.1457321,1.55,353.91,1.34,17,1,3,0,1,0
3084561,1710,-2055,-6752,2736,-1053,-6752,2931.6,338.95,351.17,179,-552,-7228,0,0,0,34.1340430,-118.1457323,1.81,351.28,1.34,17,1,3,0,1,0
3084661,1690,-1995,-6747,2716,-993,-6747,2891.8,339.92,352.13,151,-712,-7642,0,0,0,34.1340436,-118.1457322,1.77,0.20,1.34,17,1,3,0,1,0
3084761,1672,-2015,-6775,2698,-1013,-6775,2881.9,339.42,351.64,44,-1158,-8731,0,0,0,34.1340443,-118.1457323,1.51,353.14,1.34,17,1,3,0,1,0
3084861,1700,-1900,-6807,2726,-898,-6807,2870.1,341.77,353.98,31,-101,-8286,0,0,0,34.1340451,-118.1457323,1.65,355.92,1.34,17,1,3,0,1,0
3084961,1747,-1987,-6747,2773,-985,-6747,2942.7,340.44,352.66,-718,-781,-6398,0,0,0,34.1340458,-118.1457323,1.52,331.33,1.34,17,1,3,0,1,0
3085061,1807,-1937,-6752,2833,-935,-6752,2983.3,341.74,353.95,245,-230,-7928,0,0,0,34.1340465,-118.1457322,1.87,354.36,1.34,17,1,3,0,1,0
3085161,1725,-1895,-6767,2751,-893,-6767,2892.3,342.02,354.23,57,-529,-6340,0,0,0,34.1340472,-118.1457321,1.64,4.96,1.34,17,1,3,0,1,0
3085261,1682,-1967,-6807,2708,-965,-6807,2874.8,340.39,352.60,69,-1240,-7959,0,0,0,34.1340480,-118.1457319,1.16,2.82,1.34,17,1,3,0,1,0
3085362,1630,-1927,-6827,2656,-925,-6827,2812.5,340.80,353.01,-921,-1507,-9217,0,0,0,34.1340492,-118.1457317,2.01,4.51,1.34,17,1,3,0,1,0
3085461,1582,-1982,-6870,2608,-980,-6870,2786.0,339.41,351.62,504,100,-9363,0,0,0,34.1340500,-118.1457319,1.79,359.33,1.34,17,1,3,0,1,0
3085561,1575,-1937,-6860,2601,-935,-6860,2764.0,340.23,352.44,-270,-208,-6803,0,0,0,34.1340509,-118.1457322,2.01,353.29,1.34,17,1,3,0,1,0
3085661,1710,-1802,-6845,2736,-800,-6845,2850.6,343.70,355.92,-623,343,-6923,0,0,0,34.1340519,-118.1457326,1.85,349.58,1.34,17,1,3,0,1,0
3085761,1650,-1787,-6812,2676,-785,-6812,2788.8,343.65,355.87,263,-393,-7292,0,0,0,34.1340525,-118.1457330,1.39,345.72,1.34,17,1,3,0,1,0
3085861,1650,-1812,-6827,2676,-810,-6827,2795.9,343.16,355.38,-106,-948,-6995,0,0,0,34.1340535,-118.1457334,2.10,349.14,1.34,17,1,3,0,1,0
3085961,1677,-1792,-6882,2703,-790,-6882,2816.1,343.71,355.92,-285,-754,-8973,0,0,0,34.1340539,-118.1457342,1.90,344.89,1.34,17,1,3,0,1,0
3086061,1762,-1745,-6887,2788,-743,-6887,2885.3,345.08,357.29,-270,107,-8222,0,0,0,34.1340545,-118.1457348,2.29,343.76,1.34,17,1,3,0,1,0
3086161,1720,-1765,-6892,2746,-763,-6892,2850.0,344.47,356.69,-106,-487,-7440,0,0,0,34.1340551,-118.1457353,2.11,347.19,1.34,17,1,3,0,1,0
3086261,1770,-1730,-6822,2796,-728,-6822,2889.2,345.41,357.62,416,54,-8390,0,0,0,34.1340555,-118.1457357,1.99,356.77,1.34,17,1,3,0,1,0
3086361,1715,-1797,-6855,2741,-795,-6855,2854.0,343.83,356.04,56,-953,-6396,0,0,0,34.1340561,-118.1457361,1.56,2.89,1.34,17,1,3,0,1,0
3086461,1630,-1860,-6865,2656,-858,-6865,2791.1,342.10,354.31,28,-641,-7504,0,0,0,34.1340566,-118.1457365,1.48,2.96,1.34,17,1,3,0,1,0
3086561,1575,-1890,-6882,2601,-888,-6882,2748.4,341.15,353.37,-155,-738,-8360,0,0,0,34.1340571,-118.1457369,1.90,7.05,1.34,17,1,3,0,1,0
3086661,1607,-1900,-6870,2633,-898,-6870,2781.9,341.17,353.38,627,188,-9900,0,0,0,34.1340577,-118.1457373,1.91,0.83,1.34,17,1,3,0,1,0
3086761,1640,-1780,-6865,2666,-778,-6865,2777.2,343.73,355.95,-690,191,-7000,0,0,0,34.1340583,-118.1457377,1.78,358.74,1.34,17,1,3,0,1,0
3086861,1695,-1760,-6855,2721,-758,-6855,2824.6,344.43,356.65,-110,-227,-6758,0,0,0,34.1340582,-118.1457379,0.63,0.30,1.34,17,1,3,0,1,0
3086961,1710,-1765,-6850,2736,-763,-6850,2840.4,344.42,356.63,7,-542,-6853,0,0,0,34.1340589,-118.1457386,1.87,351.92,1.34,17,1,3,0,1,0
3087061,1652,-1682,-6822,2678,-680,-6822,2763.0,345.75,357.97,-36,-574,-7587,0,0,0,34.1340593,-118.1457390,1.57,356.35,1.34,17,1,3,0,1,0
3087161,1592,-1682,-6887,2618,-680,-6887,2704.9,345.44,357.66,-80,-1042,-8623,0,0,0,34.1340598,-118.1457395,1.96,355.66,1.34,17,1,3,0,1,0
3087261,1652,-1527,-6870,2678,-525,-6870,2729.0,348.91,1.12,185,-355,-9025,0,0,0,34.1340605,-118.1457391,1.46,358.20,1.34,17,1,3,0,1,0
3087361,1597,-1630,-6907,2623,-628,-6907,2697.1,346.54,358.75,-553,-308,-6549,0,0,0,34.1340613,-118.1457389,1.71,354.11,1.34,17,1,3,0,1,0
3087461,1672,-1577,-6882,2698,-575,-6882,2758.6,347.97,0.19,448,180,-8498,0,0,0,34.1340619,-118.1457387,1.43,354.41,1.34,17,1,3,0,1,0
3087561,1640,-1735,-6832,2666,-733,-6832,2764.9,344.63,356.84,-53,-1126,-6511,0,0,0,34.1340628,-118.1457384,2.33,357.76,1.34,17,1,3,0,1,0
3087661,1517,-1775,-6930,2543,-773,-6930,2657.9,343.09,355.31,421,-849,-7512,0,0,0,34.1340634,-118.1457382,1.23,353.80,1.34,17,1,3,0,1,0
3087761,1500,-1775,-6942,2526,-773,-6942,2641.6,342.98,355.20,-416,-930,-8056,0,0,0,34.1340642,-118.1457380,2.17,353.53,1.34,17,1,3,0,1,0
3087861,1537,-1745,-6907,2563,-743,-6907,2668.5,343.83,356.05,-84,-130,-9823,0,0,0,34.1340648,-118.1457378,1.53,358.60,1.34,17,1,3,0,1,0
3087961,1465,-1672,-6940,2491,-670,-6940,2579.5,344.95,357.16,-90,-326,-6712,0,0,0,34.1340657,-118.1457374,1.99,4.01,1.34,17,1,3,0,1,0
3088061,1540,-1682,-6887,2566,-680,-6887,2654.6,345.16,357.37,-470,-369,-6707,0,0,0,34.1340664,-118.1457370,1.77,7.19,1.34,17,1,3,0,1,0
3088161,1500,-1707,-6870,2526,-705,-6870,2622.5,344.41,356.62,393,-766,-7151,0,0,0,34.1340669,-118.1457367,1.14,10.03,1.34,17,1,3,0,1,0
3088261,1452,-1692,-6940,2478,-690,-6940,2572.3,344.44,356.66,-192,-378,-7207,0,0,0,34.1340673,-118.1457368,1.38,6.88,1.34,17,1,3,0,1,0
3088361,1410,-1640,-6940,2436,-638,-6940,2518.2,345.32,357.54,590,-1239,-8840,0,0,0,34.1340681,-118.1457371,1.91,1.61,1.34,17,1,3,0,1,0
3088461,1357,-1625,-6907,2383,-623,-6907,2463.1,345.35,357.56,375,-752,-8838,0,0,0,34.1340690,-118.1457374,2.10,359.77,1.34,17,1,3,0,1,0
3088561,1480,-1552,-6957,2506,-550,-6957,2565.6,347.62,359.84,-881,6,-6855,0,0,0,34.1340700,-118.1457376,2.45,1.70,1.34,17,1,3,0,1,0
3088661,1672,-1585,-6860,2698,-583,-6860,2760.3,347.81,0.02,227,273,-8813,0,0,0,34.1340708,-118.1457379,1.85,357.78,1.34,17,1,3,0,1,0
3088761,1592,-1645,-6855,2618,-643,-6855,2695.8,346.20,358.42,43,-899,-6451,0,0,0,34.1340716,-118.1457381,2.08,358.02,1.34,17,1,3,0,1,0
3088861,1545,-1725,-6925,2571,-723,-6925,2670.7,344.29,356.51,196,-673,-7691,0,0,0,34.1340725,-118.1457384,2.23,358.43,1.34,17,1,3,0,1,0
3088961,1447,-1780,-6897,2473,-778,-6897,2592.5,342.54,354.75,412,-1317,-8609,0,0,0,34.1340735,-118.1457386,2.60,358.03,1.34,17,1,3,0,1,0
3089061,1507,-1787,-6897,2533,-785,-6897,2651.9,342.78,355.00,-119,322,-9733,0,0,0,34.1340745,-118.1457388,2.06,0.94,1.34,17,1,3,0,1,0
3089161,1592,-1677,-6910,2618,-675,-6910,2703.6,345.54,357.76,-280,-276,-6983,0,0,0,34.1340754,-118.1457385,1.56,14.29,1.34,17,1,3,0,1,0
3089261,1650,-1615,-6930,2676,-613,-6930,2745.3,347.10,359.31,-454,-117,-6801,0,0,0,34.1340765,-118.1457385,1.23,8.91,1.34,17,1,3,0,1,0
3089361,1577,-1647,-6845,2603,-645,-6845,2681.7,346.08,358.30,360,-1146,-6739,0,0,0,34.1340779,-118.1457385,1.23,9.43,1.34,17,1,3,0,1,0
3089462,1485,-1600,-6915,2511,-598,-6915,2581.2,346.60,358.82,140,-274,-7791,0,0,0,34.1340796,-118.1457386,1.87,359.00,1.34,17,1,3,0,1,0
3089561,1452,-1567,-6985,2478,-565,-6985,2541.6,347.16,359.37,-372,-794,-8006,0,0,0,34.1340796,-118.1457386,1.87,359.00,1.34,17,1,3,0,1,0
3089661,1517,-1542,-6935,2543,-540,-6935,2599.7,348.01,0.23,925,-574,-8881,0,0,0,34.1340833,-118.1457395,1.36,334.22,1.34,17,1,3,0,1,0
3089761,1545,-1475,-6925,2571,-473,-6925,2614.1,349.58,1.79,-906,-1180,-6237,0,0,0,34.1340868,-118.1457396,3.03,1.23,1.34,17,1,3,0,1,0
3089861,1545,-1580,-6935,2571,-578,-6935,2635.2,347.33,359.55,375,-721,-7328,0,0,0,34.1340895,-118.1457397,1.73,359.26,1.34,17,1,3,0,1,0
3089961,1512,-1522,-6967,2538,-520,-6967,2590.7,348.42,0.64,-57,-981,-6557,0,0,0,34.1340922,-118.1457399,2.80,359.07,1.34,17,1,3,0,1,0
3090062,1425,-1547,-6935,2451,-545,-6935,2510.9,347.46,359.68,470,-375,-8437,0,0,0,34.1340943,-118.1457400,3.06,359.50,1.34,17,1,3,0,1,0
3090161,1390,-1677,-6915,2416,-675,-6915,2508.5,344.39,356.61,160,-2009,-7835,0,0,0,34.1340960,-118.1457402,1.23,352.19,1.34,17,1,3,0,1,0
3090261,1420,-1577,-6952,2446,-575,-6952,2512.7,346.77,358.99,538,-284,-8859,0,0,0,34.1340981,-118.1457406,1.12,353.40,1.34,17,1,3,0,1,0
3090361,1502,-1577,-6925,2528,-575,-6925,2592.6,347.19,359.40,-247,-10,-7131,0,0,0,34.1341006,-118.1457410,1.64,355.04,1.34,17,1,3,0,1,0
3090461,1507,-1495,-6962,2533,-493,-6962,2580.5,348.99,1.20,192,-552,-6543,0,0,0,34.1341033,-118.1457413,3.17,355.38,1.34,17,1,3,0,1,0
3090561,1537,-1485,-6902,2563,-483,-6902,2608.1,349.33,1.54,486,-965,-6173,0,0,0,34.1341057,-118.1457416,3.10,356.44,1.34,17,1,3,0,1,0
3090661,1512,-1370,-6902,2538,-368,-6902,2564.5,351.75,3.97,-338,-493,-7728,0,0,0,34.1341075,-118.1457416,2.73,352.92,1.34,17,1,3,0,1,0
3090761,1577,-1382,-6910,2603,-380,-6910,2630.6,351.69,3.91,4,-928,-8147,0,0,0,34.1341094,-118.1457419,2.31,350.01,1.34,17,1,3,0,1,0
3090861,1645,-1350,-6882,2671,-348,-6882,2693.6,352.58,4.79,780,426,-8505,0,0,0,34.1341113,-118.1457421,2.55,350.51,1.34,17,1,3,0,1,0
3090961,1732,-1422,-6822,2758,-420,-6822,2789.8,351.34,3.56,-145,-770,-7168,0,0,0,34.1341129,-118.1457422,1.96,353.29,1.34,17,1,3,0,1,0
3091061,1715,-1495,-6845,2741,-493,-6845,2785.0,349.80,2.02,611,-934,-6944,0,0,0,34.1341141,-118.1457421,1.32,353.89,1.34,17,1,3,0,1,0
3091161,1657,-1465,-6842,2683,-463,-6842,2722.7,350.21,2.43,176,-590,-6732,0,0,0,34.1341154,-118.1457418,1.49,2.70,1.34,17,1,3,0,1,0
3091261,1540,-1580,-6887,2566,-578,-6887,2630.3,347.31,359.52,354,-526,-8238,0,0,0,34.1341167,-118.1457417,1.94,7.62,1.34,17,1,3,0,1,0
3091361,1555,-1715,-6795,2581,-713,-6795,2677.7,344.56,356.77,-122,-1517,-7849,0,0,0,34.1341180,-118.1457418,2.23,1.75,1.34,17,1,3,0,1,0
3091461,1587,-1615,-6870,2613,-613,-6870,2683.9,346.80,359.01,235,-315,-8138,0,0,0,34.1341193,-118.1457420,2.60,358.61,1.34,17,1,3,0,1,0
3091561,1587,-1585,-6907,2613,-583,-6907,2677.2,347.42,359.64,-279,514,-7296,0,0,0,34.1341201,-118.1457422,1.91,359.67,1.34,17,1,3,0,1,0
3091661,1652,-1605,-6887,2678,-603,-6887,2745.0,347.31,359.53,192,-564,-6873,0,0,0,34.1341208,-118.1457423,1.36,0.42,1.34,17,1,3,0,1,0
3091761,1550,-1547,-6915,2576,-545,-6915,2633.0,348.05,0.27,200,-838,-6837,0,0,0,34.1341214,-118.1457423,1.66,1.74,1.34,17,1,3,0,1,0
3091861,1452,-1455,-6962,2478,-453,-6962,2519.1,349.64,1.86,-200,-171,-8222,0,0,0,34.1341222,-118.1457424,1.87,359.52,1.21,18,1,3,0,1,0
3091961,1575,-1350,-6897,2601,-348,-6897,2624.2,352.38,4.60,-98,-463,-8591,0,0,0,34.1341231,-118.1457424,2.21,0.38,1.21,18,1,3,0,1,0
3092061,1540,-1407,-6925,2566,-405,-6925,2597.8,351.03,3.25,381,359,-8284,0,0,0,34.1341238,-118.1457426,1.54,354.31,1.21,18,1,3,0,1,0
3092161,1650,-1365,-6910,2676,-363,-6910,2700.5,352.27,4.49,141,-310,-8000,0,0,0,34.1341244,-118.1457426,1.53,357.12,1.21,18,1,3,0,1,0
3092261,1612,-1475,-6870,2638,-473,-6870,2680.1,349.83,2.05,336,-736,-6299,0,0,0,34.1341261,-118.1457425,1.64,5.40,1.21,18,1,3,0,1,0
3092361,1592,-1460,-6915,2618,-458,-6915,2657.8,350.08,2.29,160,-627,-7433,0,0,0,34.1341278,-118.1457424,1.82,12.12,1.21,18,1,3,0,1,0
3092461,1582,-1507,-6935,2608,-505,-6935,2656.4,349.04,1.26,-329,-589,-8721,0,0,0,34.1341296,-118.1457424,2.38,2.52,1.21,18,1,3,0,1,0
3092561,1592,-1562,-6897,2618,-560,-6897,2677.2,347.93,0.14,1036,-410,-9983,0,0,0,34.1341313,-118.1457426,2.36,359.13,1.21,18,1,3,0,1,0
3092661,1577,-1490,-6942,2603,-488,-6942,2648.3,349.38,1.60,-252,31,-6904,0,0,0,34.1341336,-118.1457428,2.74,0.79,1.21,18,1,3,0,1,0
3092761,1560,-1562,-6940,2586,-560,-6940,2645.9,347.78,360.00,-8,-558,-5874,0,0,0,34.1341356,-118.1457428,2.62,4.93,1.21,18,1,3,0,1,0
3092861,1570,-1402,-6910,2596,-400,-6910,2626.6,351.24,3.46,227,-172,-7165,0,0,0,34.1341382,-118.1457429,2.87,3.82,1.34,17,1,3,0,1,0
3092961,1540,-1370,-6985,2566,-368,-6985,2592.3,351.84,4.05,305,-763,-7095,0,0,0,34.1341400,-118.1457429,1.59,6.16,1.34,17,1,3,0,1,0
3093061,1502,-1320,-6990,2528,-318,-6990,2547.9,352.83,5.05,494,-1285,-9095,0,0,0,34.1341415,-118.1457429,1.59,3.74,1.34,17,1,3,0,1,0
3093161,1540,-1297,-6990,2566,-295,-6990,2582.9,353.44,5.66,895,-277,-9426,0,0,0,34.1341430,-118.1457428,1.16,3.73,1.34,17,1,3,0,1,0
3093261,1540,-1277,-6990,2566,-275,-6990,2580.7,353.88,6.10,23,51,-7154,0,0,0,34.1341443,-118.1457426,2.07,4.11,1.34,17,1,3,0,1,0
3093361,1502,-1282,-7022,2528,-280,-7022,2543.5,353.68,5.90,393,-385,-7380,0,0,0,34.1341457,-118.1457422,2.13,9.83,1.34,17,1,3,0,1,0
3093461,1527,-1377,-7012,2553,-375,-7012,2580.4,351.64,3.86,-179,-1061,-6249,0,0,0,34.1341471,-118.1457418,1.95,15.24,1.34,17,1,3,0,1,0
3093561,1517,-1432,-7050,2543,-430,-7050,2579.1,350.40,2.62,449,-826,-8006,0,0,0,34.1341482,-118.1457415,1.62,16.13,1.34,17,1,3,0,1,0
3093661,1457,-1475,-7032,2483,-473,-7032,2527.7,349.21,1.43,270,-1516,-8102,0,0,0,34.1341492,-118.1457412,1.90,11.94,1.34,17,1,3,0,1,0
3093761,1570,-1365,-7000,2596,-363,-7000,2621.3,352.04,4.26,319,402,-10159,0,0,0,34.1341503,-118.1457410,2.25,6.16,1.34,17,1,3,0,1,0
3093861,1565,-1372,-7040,2591,-370,-7040,2617.3,351.87,4.09,-111,-298,-6855,0,0,0,34.1341512,-118.1457407,1.63,7.67,1.34,17,1,3,0,1,0
3093961,1630,-1297,-6967,2656,-295,-6967,2672.3,353.66,5.88,154,-236,-6699,0,0,0,34.1341521,-118.1457403,1.54,11.35,1.34,17,1,3,0,1,0
3094061,1597,-1225,-7017,2623,-223,-7017,2632.5,355.14,7.36,1026,-670,-7009,0,0,0,34.1341528,-118.1457399,1.13,16.24,1.34,17,1,3,0,1,0
3094161,1545,-1180,-7050,2571,-178,-7050,2577.2,356.04,8.26,177,-736,-7145,0,0,0,34.1341539,-118.1457398,1.89,3.09,1.34,17,1,3,0,1,0
3094261,1607,-1175,-7055,2633,-173,-7055,2638.7,356.24,8.46,48,-935,-8867,0,0,0,34.1341550,-118.1457398,1.37,4.62,1.34,17,1,3,0,1,0
3094361,1570,-1085,-7115,2596,-83,-7115,2597.3,358.17,10.38,1037,-473,-9139,0,0,0,34.1341560,-118.1457396,1.98,356.03,1.34,17,1,3,0,1,0
3094461,1635,-1112,-7027,2661,-110,-7027,2663.3,357.63,9.85,32,603,-7318,0,0,0,34.1341571,-118.1457395,3.00,334.47,1.34,17,1,3,0,1,0
3094561,1672,-1097,-7037,2698,-95,-7037,2699.7,357.98,10.20,1184,-521,-8141,0,0,0,34.1341583,-118.1457394,3.25,337.06,1.34,17,1,3,0,1,0
3094661,1565,-1252,-7142,2591,-250,-7142,2603.0,354.49,6.70,161,-921,-5889,0,0,0,34.1341592,-118.1457391,3.50,335.63,1.34,17,1,3,0,1,0
3094761,1550,-1215,-7110,2576,-213,-7110,2584.8,355.27,7.49,486,-571,-7589,0,0,0,34.1341599,-118.1457387,2.47,337.94,1.34,17,1,3,0,1,0
3094861,1502,-1320,-7130,2528,-318,-7130,2547.9,352.83,5.05,369,-894,-8485,0,0,0,34.1341610,-118.1457386,2.92,337.29,1.34,17,1,3,0,1,0
3094961,1485,-1387,-7162,2511,-385,-7162,2540.3,351.28,3.50,337,-1747,-8089,0,0,0,34.1341620,-118.1457390,2.97,338.00,1.34,17,1,3,0,1,0
3095061,1475,-1305,-7140,2501,-303,-7140,2519.3,353.09,5.31,947,-249,-8486,0,0,0,34.1341626,-118.1457393,1.65,335.85,1.34,17,1,3,0,1,0
3095161,1462,-1242,-7172,2488,-240,-7172,2499.5,354.49,6.71,360,-19,-6732,0,0,0,34.1341630,-118.1457395,1.55,341.22,1.34,17,1,3,0,1,0
3095261,1540,-1200,-7190,2566,-198,-7190,2573.6,355.59,7.80,550,-443,-6888,0,0,0,34.1341636,-118.1457392,1.28,357.50,1.34,17,1,3,0,1,0
3095361,1415,-1185,-7172,2441,-183,-7172,2447.9,355.71,7.93,477,-660,-6788,0,0,0,34.1341640,-118.1457392,1.61,5.36,1.34,17,1,3,0,1,0
3095461,1405,-1090,-7200,2431,-88,-7200,2432.6,357.93,10.14,636,-456,-7629,0,0,0,34.1341645,-118.1457393,1.60,7.33,1.34,17,1,3,0,1,0
3095561,1372,-1107,-7212,2398,-105,-7212,2400.3,357.49,9.71,937,-1091,-8175,0,0,0,34.1341650,-118.1457395,1.81,6.89,1.34,17,1,3,0,1,0
3095661,1517,-1097,-7162,2543,-95,-7162,2544.8,357.86,10.08,1190,-1031,-8583,0,0,0,34.1341656,-118.1457397,1.97,12.36,1.34,17,1,3,0,1,0
3095761,1507,-1200,-7110,2533,-198,-7110,2540.7,355.53,7.75,-196,-343,-6288,0,0,0,34.1341659,-118.1457388,1.34,19.14,1.34,17,1,3,0,1,0
3095861,1480,-1180,-7082,2506,-178,-7082,2512.3,355.94,8.15,982,-332,-8249,0,0,0,34.1341668,-118.1457382,2.03,15.32,1.34,17,1,3,0,1,0
3095961,1325,-1215,-7120,2351,-213,-7120,2360.6,354.82,7.04,105,-840,-6704,0,0,0,34.1341675,-118.1457380,1.69,8.26,1.34,17,1,3,0,1,0
3096061,1250,-1372,-7060,2276,-370,-7060,2305.9,350.77,2.98,587,-1105,-7753,0,0,0,34.1341680,-118.1457379,1.36,359.73,1.34,17,1,3,0,1,0
3096161,1125,-1345,-7152,2151,-343,-7152,2178.2,350.94,3.16,926,-1380,-8252,0,0,0,34.1341684,-118.1457376,1.26,338.20,1.34,17,1,3,0,1,0
3096261,1162,-1292,-7022,2188,-290,-7022,2207.1,352.45,4.67,888,-103,-9637,0,0,0,34.1341690,-118.1457372,1.36,333.57,1.34,17,1,3,0,1,0
3096361,1212,-1262,-7082,2238,-260,-7082,2253.1,353.37,5.59,-154,-297,-7094,0,0,0,34.1341692,-118.1457367,1.27,0.00,1.34,17,1,3,0,1,0
3096461,1312,-1292,-6995,2338,-290,-6995,2355.9,352.93,5.15,261,-419,-6726,0,0,0,34.1341698,-118.1457361,1.63,0.00,1.34,17,1,3,0,1,0
3096561,1237,-1345,-6942,2263,-343,-6942,2288.8,351.38,3.60,683,-1357,-6698,0,0,0,34.1341704,-118.1457356,1.88,21.13,1.34,17,1,3,0,1,0
3096661,1202,-1297,-6995,2228,-295,-6995,2247.4,352.46,4.67,535,-472,-7748,0,0,0,34.1341711,-118.1457350,1.52,12.54,1.34,17,1,3,0,1,0
3096761,1287,-1355,-6985,2313,-353,-6985,2339.8,351.32,3.54,462,-1311,-8351,0,0,0,34.1341719,-118.1457345,1.83,356.75,1.34,17,1,3,0,1,0
3096861,1325,-1305,-6947,2351,-303,-6947,2370.4,352.66,4.87,1078,-749,-9046,0,0,0,34.1341733,-118.1457339,2.31,352.88,1.34,17,1,3,0,1,0
3096961,1377,-1330,-6925,2403,-328,-6925,2425.3,352.23,4.44,-343,-968,-6384,0,0,0,34.1341755,-118.1457327,1.85,353.88,1.34,17,1,3,0,1,0
3097061,1452,-1242,-6882,2478,-240,-6882,2489.6,354.47,6.68,1044,-516,-7551,0,0,0,34.1341774,-118.1457316,1.95,352.69,1.34,17,1,3,0,1,0
3097161,1395,-1345,-6882,2421,-343,-6882,2445.2,351.94,4.15,214,-798,-6117,0,0,0,34.1341790,-118.1457304,1.43,354.70,1.34,17,1,3,0,1,0
3097261,1292,-1360,-6920,2318,-358,-6920,2345.5,351.22,3.44,629,-660,-8345,0,0,0,34.1341801,-118.1457304,1.26,1.34,1.34,17,1,3,0,1,0
3097361,1325,-1460,-6875,2351,-458,-6875,2395.2,348.98,1.19,1006,-1464,-8296,0,0,0,34.1341813,-118.1457303,2.11,358.44,1.34,17,1,3,0,1,0
3097462,1462,-1377,-6915,2488,-375,-6915,2516.1,351.43,3.64,697,-288,-9657,0,0,0,34.1341827,-118.1457305,2.16,357.06,1.34,17,1,3,0,1,0
3097561,1425,-1315,-6930,2451,-313,-6930,2470.9,352.72,4.94,326,-931,-6490,0,0,0,34.1341844,-118.1457305,2.22,357.11,1.34,17,1,3,0,1,0
3097661,1410,-1417,-6902,2436,-415,-6902,2471.1,350.33,2.55,-451,-480,-6081,0,0,0,34.1341854,-118.1457305,2.05,356.72,1.34,17,1,3,0,1,0
3097761,1522,-1382,-6947,2548,-380,-6947,2576.2,351.52,3.73,707,-875,-7045,0,0,0,34.1341861,-118.1457303,1.91,358.57,1.34,17,1,3,0,1,0
3097861,1270,-1417,-6985,2296,-415,-6985,2333.2,349.75,1.97,823,-1041,-7332,0,0,0,34.1341870,-118.1457300,1.88,0.72,1.34,17,1,3,0,1,0
3097961,1345,-1365,-6940,2371,-363,-6940,2398.6,351.30,3.51,229,-841,-8935,0,0,0,34.1341884,-118.1457300,2.73,358.85,1.34,17,1,3,0,1,0
3098061,1400,-1392,-6972,2426,-390,-6972,2457.1,350.87,3.08,-14,-565,-8331,0,0,0,34.1341898,-118.1457301,3.07,357.84,1.34,17,1,3,0,1,0
3098161,1400,-1412,-6980,2426,-410,-6980,2460.4,350.41,2.62,-115,88,-7546,0,0,0,34.1341907,-118.1457301,2.60,355.79,1.34,17,1,3,0,1,0
3098261,1447,-1382,-6947,2473,-380,-6947,2502.0,351.26,3.48,584,-125,-8128,0,0,0,34.1341920,-118.1457301,2.00,353.30,1.34,17,1,3,0,1,0
3098361,1395,-1402,-6947,2421,-400,-6947,2453.8,350.62,2.83,378,-717,-6739,0,0,0,34.1341931,-118.1457301,1.67,351.50,1.34,17,1,3,0,1,0
3098461,1387,-1445,-7000,2413,-443,-7000,2453.3,349.60,1.81,619,-1200,-7496,0,0,0,34.1341946,-118.1457301,2.18,351.81,1.34,17,1,3,0,1,0
3098561,1292,-1432,-7050,2318,-430,-7050,2357.5,349.49,1.71,-419,-947,-8909,0,0,0,34.1341961,-118.1457302,2.73,353.03,1.34,17,1,3,0,1,0
3098661,1330,-1427,-7027,2356,-425,-7027,2394.0,349.77,1.99,1014,380,-10252,0,0,0,34.1341975,-118.1457302,2.73,355.42,1.34,17,1,3,0,1,0
3098761,1330,-1397,-7000,2356,-395,-7000,2388.9,350.48,2.70,34,426,-7771,0,0,0,34.1341989,-118.1457302,2.39,358.06,1.34,17,1,3,0,1,0
3098861,1350,-1372,-6980,2376,-370,-6980,2404.6,351.15,3.36,334,-200,-7021,0,0,0,34.1342002,-118.1457301,2.33,1.11,1.34,17,1,3,0,1,0
3098961,1387,-1402,-6995,2413,-400,-6995,2445.9,350.59,2.80,717,-1108,-6440,0,0,0,34.1342014,-118.1457299,1.86,3.53,1.34,17,1,3,0,1,0
3099061,1237,-1402,-7045,2263,-400,-7045,2298.1,349.98,2.19,488,-735,-7403,0,0,0,34.1342023,-118.1457299,1.71,4.26,1.34,17,1,3,0,1,0
3099161,1302,-1335,-7007,2328,-333,-7007,2351.7,351.86,4.08,1209,-1898,-8840,0,0,0,34.1342030,-118.1457298,0.83,8.68,1.34,17,1,3,0,1,0
3099261,1312,-1237,-7032,2338,-235,-7032,2349.8,354.26,6.48,640,-347,-8590,0,0,0,34.1342040,-118.1457300,1.60,3.81,1.34,17,1,3,0,1,0
3099361,1275,-1287,-7022,2301,-285,-7022,2318.6,352.94,5.16,-130,-1718,-6390,0,0,0,34.1342050,-118.1457301,1.37,5.24,1.44,16,1,3,0,1,0
3099461,1282,-1345,-7022,2308,-343,-7022,2333.3,351.55,3.76,116,-873,-6845,0,0,0,34.1342057,-118.1457300,1.56,15.78,1.34,17,1,3,0,1,0
3099566,1227,-1402,-7077,2253,-400,-7077,2288.2,349.93,2.15,-277,-1205,-6227,0,0,0,34.1342064,-118.1457298,1.13,19.41,1.44,16,1,3,0,1,0
3099661,1265,-1372,-7060,2291,-370,-7060,2320.7,350.83,3.04,846,-724,-9127,0,0,0,34.1342070,-118.1457299,1.49,16.25,1.44,16,1,3,0,1,0
3099761,1245,-1542,-7055,2271,-540,-7055,2334.3,346.62,358.84,322,-2061,-8608,0,0,0,34.1342079,-118.1457304,2.22,359.50,1.34,17,1,3,0,1,0
3099861,1207,-1542,-7072,2233,-540,-7072,2297.4,346.41,358.62,231,-1135,-6914,0,0,0,34.1342087,-118.1457308,1.60,1.01,1.34,17,1,3,0,1,0
3099961,1312,-1402,-7055,2338,-400,-7055,2372.0,350.29,2.51,-281,740,-7509,0,0,0,34.1342094,-118.1457308,1.31,15.87,1.34,17,1,3,0,1,0
3100061,1307,-1370,-6967,2333,-368,-6967,2361.8,351.04,3.25,749,-966,-6640,0,0,0,34.1342102,-118.1457309,1.58,16.87,1.34,17,1,3,0,1,0
3100161,1282,-1402,-7050,2308,-400,-7050,2342.4,350.17,2.38,577,-857,-6918,0,0,0,34.1342110,-118.1457312,1.49,5.72,1.34,17,1,3,0,1,0
3100261,1335,-1422,-7017,2361,-420,-7017,2398.1,349.91,2.13,-143,-675,-7948,0,0,0,34.1342120,-118.1457315,1.87,355.00,1.34,17,1,3,0,1,0
3100361,1410,-1350,-7005,2436,-348,-7005,2460.7,351.87,4.09,567,-1140,-9150,0,0,0,34.1342129,-118.1457323,2.23,345.47,1.34,17,1,3,0,1,0
3100461,1345,-1330,-7012,2371,-328,-7012,2393.6,352.12,4.34,587,207,-8297,0,0,0,34.1342139,-118.1457332,2.24,341.71,1.34,17,1,3,0,1,0
3100561,1352,-1422,-7000,2378,-420,-7000,2414.8,349.98,2.20,247,-920,-7101,0,0,0,34.1342149,-118.1457335,1.85,355.03,1.34,17,1,3,0,1,0
3100661,1350,-1407,-6957,2376,-405,-6957,2410.3,350.33,2.54,217,-1110,-6467,0,0,0,34.1342160,-118.1457337,1.81,4.07,1.34,17,1,3,0,1,0
3100761,1315,-1427,-7005,2341,-425,-7005,2379.3,349.71,1.93,154,-926,-6852,0,0,0,34.1342168,-118.1457340,0.98,355.96,1.34,17,1,3,0,1,0
3100861,1297,-1485,-7012,2323,-483,-7012,2372.7,348.25,0.47,-379,-968,-8773,0,0,0,34.1342172,-118.1457346,1.44,349.01,1.34,17,1,3,0,1,0
3100961,1387,-1600,-6957,2413,-598,-6957,2486.0,346.08,358.30,658,50,-9896,0,0,0,34.1342177,-118.1457351,1.94,347.96,1.34,17,1,3,0,1,0
3101061,1357,-1630,-7000,2383,-628,-7000,2464.4,345.24,357.45,348,-1375,-6480,0,0,0,34.1342183,-118.1457356,2.08,356.54,1.34,17,1,3,0,1,0
3101161,1415,-1422,-6935,2441,-420,-6935,2476.9,350.24,2.45,-392,316,-6771,0,0,0,34.1342191,-118.1457362,1.97,359.64,1.34,17,1,3,0,1,0
3101261,1432,-1465,-6940,2458,-463,-6940,2501.2,349.33,1.55,600,-536,-7185,0,0,0,34.1342195,-118.1457355,2.13,7.34,1.34,17,1,3,0,1,0
3101361,1330,-1382,-6990,2356,-380,-6990,2386.4,350.84,3.05,638,-876,-7111,0,0,0,34.1342208,-118.1457345,1.79,4.70,1.34,17,1,3,0,1,0
3101461,1340,-1355,-7022,2366,-353,-7022,2392.2,351.51,3.73,336,-916,-8632,0,0,0,34.1342219,-118.1457348,1.98,1.30,1.34,17,1,3,0,1,0
3101561,1320,-1377,-7005,2346,-375,-7005,2375.8,350.92,3.13,985,-473,-8971,0,0,0,34.1342229,-118.1457350,1.54,359.02,1.34,17,1,3,0,1,0
3101661,1372,-1387,-7005,2398,-385,-7005,2428.7,350.88,3.10,-55,83,-7177,0,0,0,34.1342238,-118.1457352,1.70,0.81,1.34,17,1,3,0,1,0
3101761,1465,-1340,-6990,2491,-338,-6990,2513.8,352.27,4.49,466,-594,-7936,0,0,0,34.1342246,-118.1457352,1.59,4.49,1.34,17,1,3,0,1,0
3101861,1367,-1412,-7017,2393,-410,-7017,2427.9,350.28,2.49,-78,-847,-6448,0,0,0,34.1342257,-118.1457350,1.91,7.30,1.34,17,1,3,0,1,0
3101961,1292,-1552,-7017,2318,-550,-7017,2382.4,346.65,358.87,481,-1276,-7470,0,0,0,34.1342270,-118.1457349,2.00,0.52,1.34,17,1,3,0,1,0
3102061,1245,-1652,-7017,2271,-650,-7017,2362.2,344.03,356.24,333,-732,-8496,0,0,0,34.1342281,-118.1457350,1.51,354.48,1.34,17,1,3,0,1,0
3102161,1405,-1495,-6995,2431,-493,-6995,2480.5,348.54,0.75,922,-315,-9856,0,0,0,34.1342290,-118.1457347,1.32,351.90,1.34,17,1,3,0,1,0
3102261,1320,-1557,-7032,2346,-555,-7032,2410.8,346.69,358.91,-408,-223,-6766,0,0,0,34.1342294,-118.1457351,0.99,359.48,1.34,17,1,3,0,1,0
3102361,1447,-1505,-6975,2473,-503,-6975,2523.6,348.50,0.72,154,-717,-6292,0,0,0,34.1342303,-118.1457355,1.43,10.69,1.34,17,1,3,0,1,0
3102461,1367,-1427,-7037,2393,-425,-7037,2430.4,349.93,2.15,303,-797,-6982,0,0,0,34.1342310,-118.1457358,1.46,9.82,1.34,17,1,3,0,1,0
3102561,1287,-1437,-7005,2313,-435,-7005,2353.5,349.35,1.57,577,-877,-7248,0,0,0,34.1342317,-118.1457361,1.01,4.67,1.34,17,1,3,0,1,0
3102661,1237,-1382,-7102,2263,-380,-7102,2294.7,350.47,2.68,671,-1808,-8382,0,0,0,34.1342319,-118.1457368,1.85,4.44,1.34,17,1,3,0,1,0
3102761,1277,-1252,-6995,2303,-250,-6995,2316.5,353.80,6.02,1620,-522,-9123,0,0,0,34.1342325,-118.1457375,2.15,1.12,1.34,17,1,3,0,1,0
3102862,1282,-1365,-6972,2308,-363,-6972,2336.4,351.06,3.28,-450,-1559,-5068,0,0,0,34.1342325,-118.1457383,1.70,359.24,1.34,17,1,3,0,1,0
3102961,1362,-1302,-6975,2388,-300,-6975,2406.8,352.84,5.06,537,-567,-7766,0,0,0,34.1342322,-118.1457388,0.96,7.83,1.34,17,1,3,0,1,0
3103061,1297,-1387,-7000,2323,-385,-7000,2354.7,350.59,2.81,269,-987,-6206,0,0,0,34.1342319,-118.1457390,0.88,18.21,1.34,17,1,3,0,1,0
3103161,1292,-1407,-7005,2318,-405,-7005,2353.1,350.09,2.31,651,-806,-8401,0,0,0,34.1342320,-118.1457395,0.93,23.29,1.34,17,1,3,0,1,0
3103261,1202,-1542,-6942,2228,-540,-6942,2292.5,346.38,358.59,659,-1999,-8132,0,0,0,34.1342316,-118.1457397,1.23,11.59,1.34,17,1,3,0,1,0
3103361,1255,-1567,-6980,2281,-565,-6980,2349.9,346.09,358.30,509,95,-9661,0,0,0,34.1342316,-118.1457402,1.89,352.85,1.34,17,1,3,0,1,0
3103461,1222,-1600,-6990,2248,-598,-6990,2326.2,345.10,357.32,143,-54,-6731,0,0,0,34.1342315,-118.1457405,1.88,1.77,1.34,17,1,3,0,1,0
3103561,1245,-1577,-6952,2271,-575,-6952,2342.7,345.79,358.01,349,-687,-6697,0,0,0,34.1342314,-118.1457415,1.65,7.97,1.34,17,1,3,0,1,0
3103661,1237,-1485,-6962,2263,-483,-6962,2314.0,347.95,0.17,634,-1107,-6867,0,0,0,34.1342315,-118.1457424,1.44,6.58,1.34,17,1,3,0,1,0
3103761,1227,-1490,-7005,2253,-488,-7005,2305.2,347.78,359.99,551,-1041,-7496,0,0,0,34.1342318,-118.1457434,1.49,6.36,1.34,17,1,3,0,1,0
3103861,1185,-1445,-7037,2211,-443,-7037,2254.9,348.67,0.89,881,-1810,-8705,0,0,0,34.1342324,-118.1457440,1.52,6.58,1.34,17,1,3,0,1,0
3103961,1260,-1365,-7007,2286,-363,-7007,2314.6,350.98,3.19,954,-543,-9053,0,0,0,34.1342332,-118.1457450,1.94,358.09,1.34,17,1,3,0,1,0
3104061,1222,-1360,-7040,2248,-358,-7040,2276.3,350.95,3.17,185,-966,-6417,0,0,0,34.1342337,-118.1457459,2.10,355.90,1.34,17,1,3,0,1,0
3104161,1270,-1365,-7012,2296,-363,-7012,2324.5,351.02,3.23,487,-419,-7675,0,0,0,34.1342341,-118.1457468,2.55,358.89,1.34,17,1,3,0,1,0
3104261,1207,-1460,-7050,2233,-458,-7050,2279.5,348.41,0.63,242,-1327,-6393,0,0,0,34.1342349,-118.1457473,3.74,4.92,1.34,17,1,3,0,1,0
3104361,1127,-1450,-7027,2153,-448,-7027,2199.1,348.25,0.46,904,-1661,-8281,0,0,0,34.1342354,-118.1457479,3.84,5.43,1.34,17,1,3,0,1,0
3104461,1110,-1547,-7055,2136,-545,-7055,2204.4,345.69,357.90,409,-1937,-8226,0,0,0,34.1342365,-118.1457485,3.97,0.64,1.34,17,1,3,0,1,0
3104561,1157,-1382,-7017,2183,-380,-7017,2215.8,350.13,2.34,451,162,-10122,0,0,0,34.1342375,-118.1457492,4.50,355.59,1.34,17,1,3,0,1,0
3104661,1105,-1370,-7070,2131,-368,-7070,2162.5,350.20,2.42,108,-403,-6778,0,0,0,34.1342383,-118.1457494,4.38,358.90,1.34,17,1,3,0,1,0
3104761,1175,-1450,-7032,2201,-448,-7032,2246.1,348.49,0.71,303,-938,-6160,0,0,0,34.1342391,-118.1457496,3.04,4.47,1.34,17,1,3,0,1,0
3104861,1217,-1417,-7055,2243,-415,-7055,2281.1,349.52,1.73,913,-1625,-6493,0,0,0,34.1342396,-118.1457498,3.05,11.08,1.34,17,1,3,0,1,0
3104961,1217,-1292,-7070,2243,-290,-7070,2261.7,352.63,4.85,268,-1136,-7471,0,0,0,34.1342400,-118.1457501,2.15,4.47,1.34,17,1,3,0,1,0
3105061,1250,-1330,-7000,2276,-328,-7000,2299.5,351.80,4.02,644,-1671,-8968,0,0,0,34.1342405,-118.1457508,1.43,348.04,1.34,17,1,3,0,1,0
3105161,1292,-1205,-7000,2318,-203,-7000,2326.9,355.00,7.21,1385,-554,-9555,0,0,0,34.1342412,-118.1457514,2.75,339.80,1.34,17,1,3,0,1,0
3105261,1200,-1340,-7017,2226,-338,-7017,2251.5,351.37,3.58,-258,-1152,-5355,0,0,0,34.1342421,-118.1457517,1.77,347.55,1.34,17,1,3,0,1,0
3105361,1292,-1355,-6995,2318,-353,-6995,2344.7,351.34,3.56,767,-584,-7610,0,0,0,34.1342429,-118.1457520,1.81,0.81,1.34,17,1,3,0,1,0
3105461,1340,-1460,-6995,2366,-458,-6995,2409.9,349.04,1.26,-103,-1177,-6239,0,0,0,34.1342437,-118.1457522,1.71,7.39,1.34,17,1,3,0,1,0
3105561,1287,-1387,-7022,2313,-385,-7022,2344.8,350.55,2.77,376,-541,-9147,0,0,0,34.1342445,-118.1457525,1.86,3.62,1.34,17,1,3,0,1,0
3105661,1120,-1677,-7065,2146,-675,-7065,2249.7,342.54,354.76,536,-1866,-7731,0,0,0,34.1342451,-118.1457530,1.60,354.96,1.34,17,1,3,0,1,0
3105761,1152,-1677,-7017,2178,-675,-7017,2280.2,342.78,355.00,188,-607,-7698,0,0,0,34.1342457,-118.1457536,1.50,348.70,1.34,17,1,3,0,1,0
